subject	blockcode	trialcode	trialnum	latency	response	values.imageName	stimulusitem1	stimulusnumber1	stimulusitem2	stimulusnumber2	stimulusitem3	stimulusnumber3	stimulusitem4	stimulusnumber4	stimulusitem5	stimulusnumber5	stimulusitem6	stimulusnumber6	stimulusitem7	stimulusnumber7	stimulusitem8	stimulusnumber8	stimulusitem9	stimulusnumber9	stimulusitem10	stimulusnumber10	stimulusitem11	stimulusnumber11	stimulusitem12	stimulusnumber12	stimulusitem13	stimulusnumber13	stimulusitem14	stimulusnumber14	stimulusitem15	stimulusnumber15
1	practiceBlock	practice	1	1	0	Picture1.jpg	+	1	Picture1.jpg	1	mask5.jpg	5	mask5.jpg	5	mask2.jpg	2	mask2.jpg	2	mask1.jpg	1	0	0	0	0	0	0	0	0	0	0	0	0	0	0	0	0
1	practiceBlock	centre_mouse	2	46	reveal	Picture1.jpg	N_1.png	1	N_2.png	2	N_3.png	3	N_4.png	4	Y_1.png	1	Y_2.png	2	Y_3.png	3	Y_4.png	4	confidence.png	1	guessing.png	2	respond_yes.png	3	respond_no.png	4	Word 0 of 12	1	Image 1 of 3	1	reveal.png	5
1	practiceBlock	practice_absent_trial	3	24	no_4	Picture1.jpg	N_1.png	1	N_2.png	2	N_3.png	3	N_4.png	4	Y_1.png	1	Y_2.png	2	Y_3.png	3	Y_4.png	4	confidence.png	1	guessing.png	2	respond_yes.png	3	respond_no.png	4	Word 1 of 12	1	Image 1 of 3	1	wall	3
1	practiceBlock	centre_mouse	4	53	reveal	Picture1.jpg	N_1.png	1	N_2.png	2	N_3.png	3	N_4.png	4	Y_1.png	1	Y_2.png	2	Y_3.png	3	Y_4.png	4	confidence.png	1	guessing.png	2	respond_yes.png	3	respond_no.png	4	Word 1 of 12	1	Image 1 of 3	1	reveal.png	5
1	practiceBlock	practice_present_trial	5	21	yes_1	Picture1.jpg	N_1.png	1	N_2.png	2	N_3.png	3	N_4.png	4	Y_1.png	1	Y_2.png	2	Y_3.png	3	Y_4.png	4	confidence.png	1	guessing.png	2	respond_yes.png	3	respond_no.png	4	Word 2 of 12	1	Image 1 of 3	1	color	6
1	practiceBlock	centre_mouse	6	66	reveal	Picture1.jpg	N_1.png	1	N_2.png	2	N_3.png	3	N_4.png	4	Y_1.png	1	Y_2.png	2	Y_3.png	3	Y_4.png	4	confidence.png	1	guessing.png	2	respond_yes.png	3	respond_no.png	4	Word 2 of 12	1	Image 1 of 3	1	reveal.png	5
1	practiceBlock	practice_absent_trial	7	31	no_4	Picture1.jpg	N_1.png	1	N_2.png	2	N_3.png	3	N_4.png	4	Y_1.png	1	Y_2.png	2	Y_3.png	3	Y_4.png	4	confidence.png	1	guessing.png	2	respond_yes.png	3	respond_no.png	4	Word 3 of 12	1	Image 1 of 3	1	line	6
1	practiceBlock	centre_mouse	8	63	reveal	Picture1.jpg	N_1.png	1	N_2.png	2	N_3.png	3	N_4.png	4	Y_1.png	1	Y_2.png	2	Y_3.png	3	Y_4.png	4	confidence.png	1	guessing.png	2	respond_yes.png	3	respond_no.png	4	Word 3 of 12	1	Image 1 of 3	1	reveal.png	5
1	practiceBlock	practice_present_trial	9	48	yes_2	Picture1.jpg	N_1.png	1	N_2.png	2	N_3.png	3	N_4.png	4	Y_1.png	1	Y_2.png	2	Y_3.png	3	Y_4.png	4	confidence.png	1	guessing.png	2	respond_yes.png	3	respond_no.png	4	Word 4 of 12	1	Image 1 of 3	1	heart	1
1	practiceBlock	centre_mouse	10	37	reveal	Picture1.jpg	N_1.png	1	N_2.png	2	N_3.png	3	N_4.png	4	Y_1.png	1	Y_2.png	2	Y_3.png	3	Y_4.png	4	confidence.png	1	guessing.png	2	respond_yes.png	3	respond_no.png	4	Word 4 of 12	1	Image 1 of 3	1	reveal.png	5
1	practiceBlock	practice_present_trial	11	35	no_4	Picture1.jpg	N_1.png	1	N_2.png	2	N_3.png	3	N_4.png	4	Y_1.png	1	Y_2.png	2	Y_3.png	3	Y_4.png	4	confidence.png	1	guessing.png	2	respond_yes.png	3	respond_no.png	4	Word 5 of 12	1	Image 1 of 3	1	black	4
1	practiceBlock	centre_mouse	12	57	reveal	Picture1.jpg	N_1.png	1	N_2.png	2	N_3.png	3	N_4.png	4	Y_1.png	1	Y_2.png	2	Y_3.png	3	Y_4.png	4	confidence.png	1	guessing.png	2	respond_yes.png	3	respond_no.png	4	Word 5 of 12	1	Image 1 of 3	1	reveal.png	5
1	practiceBlock	practice_present_trial	13	45	no_2	Picture1.jpg	N_1.png	1	N_2.png	2	N_3.png	3	N_4.png	4	Y_1.png	1	Y_2.png	2	Y_3.png	3	Y_4.png	4	confidence.png	1	guessing.png	2	respond_yes.png	3	respond_no.png	4	Word 6 of 12	1	Image 1 of 3	1	outline	5
1	practiceBlock	centre_mouse	14	40	reveal	Picture1.jpg	N_1.png	1	N_2.png	2	N_3.png	3	N_4.png	4	Y_1.png	1	Y_2.png	2	Y_3.png	3	Y_4.png	4	confidence.png	1	guessing.png	2	respond_yes.png	3	respond_no.png	4	Word 6 of 12	1	Image 1 of 3	1	reveal.png	5
1	practiceBlock	practice_absent_trial	15	49	yes_3	Picture1.jpg	N_1.png	1	N_2.png	2	N_3.png	3	N_4.png	4	Y_1.png	1	Y_2.png	2	Y_3.png	3	Y_4.png	4	confidence.png	1	guessing.png	2	respond_yes.png	3	respond_no.png	4	Word 7 of 12	1	Image 1 of 3	1	day	4
1	practiceBlock	centre_mouse	16	31	reveal	Picture1.jpg	N_1.png	1	N_2.png	2	N_3.png	3	N_4.png	4	Y_1.png	1	Y_2.png	2	Y_3.png	3	Y_4.png	4	confidence.png	1	guessing.png	2	respond_yes.png	3	respond_no.png	4	Word 7 of 12	1	Image 1 of 3	1	reveal.png	5
1	practiceBlock	practice_absent_trial	17	53	no_4	Picture1.jpg	N_1.png	1	N_2.png	2	N_3.png	3	N_4.png	4	Y_1.png	1	Y_2.png	2	Y_3.png	3	Y_4.png	4	confidence.png	1	guessing.png	2	respond_yes.png	3	respond_no.png	4	Word 8 of 12	1	Image 1 of 3	1	dome	5
1	practiceBlock	centre_mouse	18	60	reveal	Picture1.jpg	N_1.png	1	N_2.png	2	N_3.png	3	N_4.png	4	Y_1.png	1	Y_2.png	2	Y_3.png	3	Y_4.png	4	confidence.png	1	guessing.png	2	respond_yes.png	3	respond_no.png	4	Word 8 of 12	1	Image 1 of 3	1	reveal.png	5
1	practiceBlock	practice_present_trial	19	60	yes_4	Picture1.jpg	N_1.png	1	N_2.png	2	N_3.png	3	N_4.png	4	Y_1.png	1	Y_2.png	2	Y_3.png	3	Y_4.png	4	confidence.png	1	guessing.png	2	respond_yes.png	3	respond_no.png	4	Word 9 of 12	1	Image 1 of 3	1	red	3
1	practiceBlock	centre_mouse	20	51	reveal	Picture1.jpg	N_1.png	1	N_2.png	2	N_3.png	3	N_4.png	4	Y_1.png	1	Y_2.png	2	Y_3.png	3	Y_4.png	4	confidence.png	1	guessing.png	2	respond_yes.png	3	respond_no.png	4	Word 9 of 12	1	Image 1 of 3	1	reveal.png	5
1	practiceBlock	practice_present_trial	21	53	yes_2	Picture1.jpg	N_1.png	1	N_2.png	2	N_3.png	3	N_4.png	4	Y_1.png	1	Y_2.png	2	Y_3.png	3	Y_4.png	4	confidence.png	1	guessing.png	2	respond_yes.png	3	respond_no.png	4	Word 10 of 12	1	Image 1 of 3	1	love	2
1	practiceBlock	centre_mouse	22	69	reveal	Picture1.jpg	N_1.png	1	N_2.png	2	N_3.png	3	N_4.png	4	Y_1.png	1	Y_2.png	2	Y_3.png	3	Y_4.png	4	confidence.png	1	guessing.png	2	respond_yes.png	3	respond_no.png	4	Word 10 of 12	1	Image 1 of 3	1	reveal.png	5
1	practiceBlock	practice_absent_trial	23	44	no_4	Picture1.jpg	N_1.png	1	N_2.png	2	N_3.png	3	N_4.png	4	Y_1.png	1	Y_2.png	2	Y_3.png	3	Y_4.png	4	confidence.png	1	guessing.png	2	respond_yes.png	3	respond_no.png	4	Word 11 of 12	1	Image 1 of 3	1	blanket	1
1	practiceBlock	centre_mouse	24	38	reveal	Picture1.jpg	N_1.png	1	N_2.png	2	N_3.png	3	N_4.png	4	Y_1.png	1	Y_2.png	2	Y_3.png	3	Y_4.png	4	confidence.png	1	guessing.png	2	respond_yes.png	3	respond_no.png	4	Word 11 of 12	1	Image 1 of 3	1	reveal.png	5
1	practiceBlock	practice_absent_trial	25	33	yes_2	Picture1.jpg	N_1.png	1	N_2.png	2	N_3.png	3	N_4.png	4	Y_1.png	1	Y_2.png	2	Y_3.png	3	Y_4.png	4	confidence.png	1	guessing.png	2	respond_yes.png	3	respond_no.png	4	Word 12 of 12	1	Image 1 of 3	1	crow	2
1	practiceBlock	centre_mouse	26	53	reveal	Picture1.jpg	N_1.png	1	N_2.png	2	N_3.png	3	N_4.png	4	Y_1.png	1	Y_2.png	2	Y_3.png	3	Y_4.png	4	confidence.png	1	guessing.png	2	respond_yes.png	3	respond_no.png	4	Word 12 of 12	1	Image 1 of 3	1	reveal.png	5
1	practiceBlock	catch_absent_trial	27	42	yes_3	Picture1.jpg	N_1.png	1	N_2.png	2	N_3.png	3	N_4.png	4	Y_1.png	1	Y_2.png	2	Y_3.png	3	Y_4.png	4	confidence.png	1	guessing.png	2	respond_yes.png	3	respond_no.png	4	Word 12 of 12	1	Image 1 of 3	1	PRESS: No 1	1
1	practiceBlock	centre_mouse	28	41	reveal	Picture1.jpg	N_1.png	1	N_2.png	2	N_3.png	3	N_4.png	4	Y_1.png	1	Y_2.png	2	Y_3.png	3	Y_4.png	4	confidence.png	1	guessing.png	2	respond_yes.png	3	respond_no.png	4	Word 12 of 12	1	Image 1 of 3	1	reveal.png	5
1	practiceBlock	catch_present_trial	29	43	yes_2	Picture1.jpg	N_1.png	1	N_2.png	2	N_3.png	3	N_4.png	4	Y_1.png	1	Y_2.png	2	Y_3.png	3	Y_4.png	4	confidence.png	1	guessing.png	2	respond_yes.png	3	respond_no.png	4	Word 12 of 12	1	Image 1 of 3	1	PRESS: Yes 4	4
1	practiceBlock	centre_mouse	30	52	reveal	Picture1.jpg	N_1.png	1	N_2.png	2	N_3.png	3	N_4.png	4	Y_1.png	1	Y_2.png	2	Y_3.png	3	Y_4.png	4	confidence.png	1	guessing.png	2	respond_yes.png	3	respond_no.png	4	Word 12 of 12	1	Image 1 of 3	1	reveal.png	5
1	practiceBlock	practice	1	1	0	Picture1.jpg	+	1	Picture2.jpg	2	mask2.jpg	2	mask4.jpg	4	mask3.jpg	3	mask3.jpg	3	mask2.jpg	2	0	0	0	0	0	0	0	0	0	0	0	0	0	0	0	0
1	practiceBlock	centre_mouse	2	43	reveal	Picture1.jpg	N_1.png	1	N_2.png	2	N_3.png	3	N_4.png	4	Y_1.png	1	Y_2.png	2	Y_3.png	3	Y_4.png	4	confidence.png	1	guessing.png	2	respond_yes.png	3	respond_no.png	4	Word 0 of 12	1	Image 2 of 3	1	reveal.png	5
1	practiceBlock	practice_absent_trial	3	38	no_3	Picture2.jpg	N_1.png	1	N_2.png	2	N_3.png	3	N_4.png	4	Y_1.png	1	Y_2.png	2	Y_3.png	3	Y_4.png	4	confidence.png	1	guessing.png	2	respond_yes.png	3	respond_no.png	4	Word 1 of 12	1	Image 2 of 3	1	walk	1
1	practiceBlock	centre_mouse	4	41	reveal	Picture2.jpg	N_1.png	1	N_2.png	2	N_3.png	3	N_4.png	4	Y_1.png	1	Y_2.png	2	Y_3.png	3	Y_4.png	4	confidence.png	1	guessing.png	2	respond_yes.png	3	respond_no.png	4	Word 1 of 12	1	Image 2 of 3	1	reveal.png	5
1	practiceBlock	practice_present_trial	5	55	yes_2	Picture2.jpg	N_1.png	1	N_2.png	2	N_3.png	3	N_4.png	4	Y_1.png	1	Y_2.png	2	Y_3.png	3	Y_4.png	4	confidence.png	1	guessing.png	2	respond_yes.png	3	respond_no.png	4	Word 2 of 12	1	Image 2 of 3	1	emoji	6
1	practiceBlock	centre_mouse	6	50	reveal	Picture2.jpg	N_1.png	1	N_2.png	2	N_3.png	3	N_4.png	4	Y_1.png	1	Y_2.png	2	Y_3.png	3	Y_4.png	4	confidence.png	1	guessing.png	2	respond_yes.png	3	respond_no.png	4	Word 2 of 12	1	Image 2 of 3	1	reveal.png	5
1	practiceBlock	practice_absent_trial	7	37	no_4	Picture2.jpg	N_1.png	1	N_2.png	2	N_3.png	3	N_4.png	4	Y_1.png	1	Y_2.png	2	Y_3.png	3	Y_4.png	4	confidence.png	1	guessing.png	2	respond_yes.png	3	respond_no.png	4	Word 3 of 12	1	Image 2 of 3	1	metal	3
1	practiceBlock	centre_mouse	8	38	reveal	Picture2.jpg	N_1.png	1	N_2.png	2	N_3.png	3	N_4.png	4	Y_1.png	1	Y_2.png	2	Y_3.png	3	Y_4.png	4	confidence.png	1	guessing.png	2	respond_yes.png	3	respond_no.png	4	Word 3 of 12	1	Image 2 of 3	1	reveal.png	5
1	practiceBlock	practice_present_trial	9	72	yes_4	Picture2.jpg	N_1.png	1	N_2.png	2	N_3.png	3	N_4.png	4	Y_1.png	1	Y_2.png	2	Y_3.png	3	Y_4.png	4	confidence.png	1	guessing.png	2	respond_yes.png	3	respond_no.png	4	Word 4 of 12	1	Image 2 of 3	1	smile	4
1	practiceBlock	centre_mouse	10	34	reveal	Picture2.jpg	N_1.png	1	N_2.png	2	N_3.png	3	N_4.png	4	Y_1.png	1	Y_2.png	2	Y_3.png	3	Y_4.png	4	confidence.png	1	guessing.png	2	respond_yes.png	3	respond_no.png	4	Word 4 of 12	1	Image 2 of 3	1	reveal.png	5
1	practiceBlock	practice_present_trial	11	36	no_1	Picture2.jpg	N_1.png	1	N_2.png	2	N_3.png	3	N_4.png	4	Y_1.png	1	Y_2.png	2	Y_3.png	3	Y_4.png	4	confidence.png	1	guessing.png	2	respond_yes.png	3	respond_no.png	4	Word 5 of 12	1	Image 2 of 3	1	face	1
1	practiceBlock	centre_mouse	12	54	reveal	Picture2.jpg	N_1.png	1	N_2.png	2	N_3.png	3	N_4.png	4	Y_1.png	1	Y_2.png	2	Y_3.png	3	Y_4.png	4	confidence.png	1	guessing.png	2	respond_yes.png	3	respond_no.png	4	Word 5 of 12	1	Image 2 of 3	1	reveal.png	5
1	practiceBlock	practice_absent_trial	13	46	yes_1	Picture2.jpg	N_1.png	1	N_2.png	2	N_3.png	3	N_4.png	4	Y_1.png	1	Y_2.png	2	Y_3.png	3	Y_4.png	4	confidence.png	1	guessing.png	2	respond_yes.png	3	respond_no.png	4	Word 6 of 12	1	Image 2 of 3	1	beauty	2
1	practiceBlock	centre_mouse	14	30	reveal	Picture2.jpg	N_1.png	1	N_2.png	2	N_3.png	3	N_4.png	4	Y_1.png	1	Y_2.png	2	Y_3.png	3	Y_4.png	4	confidence.png	1	guessing.png	2	respond_yes.png	3	respond_no.png	4	Word 6 of 12	1	Image 2 of 3	1	reveal.png	5
1	practiceBlock	practice_present_trial	15	39	yes_4	Picture2.jpg	N_1.png	1	N_2.png	2	N_3.png	3	N_4.png	4	Y_1.png	1	Y_2.png	2	Y_3.png	3	Y_4.png	4	confidence.png	1	guessing.png	2	respond_yes.png	3	respond_no.png	4	Word 7 of 12	1	Image 2 of 3	1	happy	5
1	practiceBlock	centre_mouse	16	32	reveal	Picture2.jpg	N_1.png	1	N_2.png	2	N_3.png	3	N_4.png	4	Y_1.png	1	Y_2.png	2	Y_3.png	3	Y_4.png	4	confidence.png	1	guessing.png	2	respond_yes.png	3	respond_no.png	4	Word 7 of 12	1	Image 2 of 3	1	reveal.png	5
1	practiceBlock	practice_absent_trial	17	43	yes_2	Picture2.jpg	N_1.png	1	N_2.png	2	N_3.png	3	N_4.png	4	Y_1.png	1	Y_2.png	2	Y_3.png	3	Y_4.png	4	confidence.png	1	guessing.png	2	respond_yes.png	3	respond_no.png	4	Word 8 of 12	1	Image 2 of 3	1	grey-clothes	4
1	practiceBlock	centre_mouse	18	36	reveal	Picture2.jpg	N_1.png	1	N_2.png	2	N_3.png	3	N_4.png	4	Y_1.png	1	Y_2.png	2	Y_3.png	3	Y_4.png	4	confidence.png	1	guessing.png	2	respond_yes.png	3	respond_no.png	4	Word 8 of 12	1	Image 2 of 3	1	reveal.png	5
1	practiceBlock	practice_absent_trial	19	19	no_4	Picture2.jpg	N_1.png	1	N_2.png	2	N_3.png	3	N_4.png	4	Y_1.png	1	Y_2.png	2	Y_3.png	3	Y_4.png	4	confidence.png	1	guessing.png	2	respond_yes.png	3	respond_no.png	4	Word 9 of 12	1	Image 2 of 3	1	man	6
1	practiceBlock	centre_mouse	20	34	reveal	Picture2.jpg	N_1.png	1	N_2.png	2	N_3.png	3	N_4.png	4	Y_1.png	1	Y_2.png	2	Y_3.png	3	Y_4.png	4	confidence.png	1	guessing.png	2	respond_yes.png	3	respond_no.png	4	Word 9 of 12	1	Image 2 of 3	1	reveal.png	5
1	practiceBlock	practice_absent_trial	21	46	no_1	Picture2.jpg	N_1.png	1	N_2.png	2	N_3.png	3	N_4.png	4	Y_1.png	1	Y_2.png	2	Y_3.png	3	Y_4.png	4	confidence.png	1	guessing.png	2	respond_yes.png	3	respond_no.png	4	Word 10 of 12	1	Image 2 of 3	1	anxious	5
1	practiceBlock	centre_mouse	22	41	reveal	Picture2.jpg	N_1.png	1	N_2.png	2	N_3.png	3	N_4.png	4	Y_1.png	1	Y_2.png	2	Y_3.png	3	Y_4.png	4	confidence.png	1	guessing.png	2	respond_yes.png	3	respond_no.png	4	Word 10 of 12	1	Image 2 of 3	1	reveal.png	5
1	practiceBlock	practice_present_trial	23	56	no_4	Picture2.jpg	N_1.png	1	N_2.png	2	N_3.png	3	N_4.png	4	Y_1.png	1	Y_2.png	2	Y_3.png	3	Y_4.png	4	confidence.png	1	guessing.png	2	respond_yes.png	3	respond_no.png	4	Word 11 of 12	1	Image 2 of 3	1	yellow	2
1	practiceBlock	centre_mouse	24	43	reveal	Picture2.jpg	N_1.png	1	N_2.png	2	N_3.png	3	N_4.png	4	Y_1.png	1	Y_2.png	2	Y_3.png	3	Y_4.png	4	confidence.png	1	guessing.png	2	respond_yes.png	3	respond_no.png	4	Word 11 of 12	1	Image 2 of 3	1	reveal.png	5
1	practiceBlock	practice_present_trial	25	57	no_4	Picture2.jpg	N_1.png	1	N_2.png	2	N_3.png	3	N_4.png	4	Y_1.png	1	Y_2.png	2	Y_3.png	3	Y_4.png	4	confidence.png	1	guessing.png	2	respond_yes.png	3	respond_no.png	4	Word 12 of 12	1	Image 2 of 3	1	eyes	3
1	practiceBlock	centre_mouse	26	30	reveal	Picture2.jpg	N_1.png	1	N_2.png	2	N_3.png	3	N_4.png	4	Y_1.png	1	Y_2.png	2	Y_3.png	3	Y_4.png	4	confidence.png	1	guessing.png	2	respond_yes.png	3	respond_no.png	4	Word 12 of 12	1	Image 2 of 3	1	reveal.png	5
1	practiceBlock	catch_absent_trial	27	44	no_3	Picture2.jpg	N_1.png	1	N_2.png	2	N_3.png	3	N_4.png	4	Y_1.png	1	Y_2.png	2	Y_3.png	3	Y_4.png	4	confidence.png	1	guessing.png	2	respond_yes.png	3	respond_no.png	4	Word 12 of 12	1	Image 2 of 3	1	PRESS: No 4	4
1	practiceBlock	centre_mouse	28	30	reveal	Picture2.jpg	N_1.png	1	N_2.png	2	N_3.png	3	N_4.png	4	Y_1.png	1	Y_2.png	2	Y_3.png	3	Y_4.png	4	confidence.png	1	guessing.png	2	respond_yes.png	3	respond_no.png	4	Word 12 of 12	1	Image 2 of 3	1	reveal.png	5
1	practiceBlock	catch_present_trial	29	34	yes_3	Picture2.jpg	N_1.png	1	N_2.png	2	N_3.png	3	N_4.png	4	Y_1.png	1	Y_2.png	2	Y_3.png	3	Y_4.png	4	confidence.png	1	guessing.png	2	respond_yes.png	3	respond_no.png	4	Word 12 of 12	1	Image 2 of 3	1	PRESS: Yes 1	1
1	practiceBlock	centre_mouse	30	43	reveal	Picture2.jpg	N_1.png	1	N_2.png	2	N_3.png	3	N_4.png	4	Y_1.png	1	Y_2.png	2	Y_3.png	3	Y_4.png	4	confidence.png	1	guessing.png	2	respond_yes.png	3	respond_no.png	4	Word 12 of 12	1	Image 2 of 3	1	reveal.png	5
1	practiceBlock	practice	1	1	0	Picture2.jpg	+	1	Picture3.jpg	3	mask1.jpg	1	mask3.jpg	3	mask4.jpg	4	mask1.jpg	1	mask3.jpg	3	0	0	0	0	0	0	0	0	0	0	0	0	0	0	0	0
1	practiceBlock	centre_mouse	2	40	reveal	Picture2.jpg	N_1.png	1	N_2.png	2	N_3.png	3	N_4.png	4	Y_1.png	1	Y_2.png	2	Y_3.png	3	Y_4.png	4	confidence.png	1	guessing.png	2	respond_yes.png	3	respond_no.png	4	Word 0 of 12	1	Image 3 of 3	1	reveal.png	5
1	practiceBlock	practice_present_trial	3	54	no_3	Picture3.jpg	N_1.png	1	N_2.png	2	N_3.png	3	N_4.png	4	Y_1.png	1	Y_2.png	2	Y_3.png	3	Y_4.png	4	confidence.png	1	guessing.png	2	respond_yes.png	3	respond_no.png	4	Word 1 of 12	1	Image 3 of 3	1	sun	2
1	practiceBlock	centre_mouse	4	40	reveal	Picture3.jpg	N_1.png	1	N_2.png	2	N_3.png	3	N_4.png	4	Y_1.png	1	Y_2.png	2	Y_3.png	3	Y_4.png	4	confidence.png	1	guessing.png	2	respond_yes.png	3	respond_no.png	4	Word 1 of 12	1	Image 3 of 3	1	reveal.png	5
1	practiceBlock	practice_absent_trial	5	24	no_3	Picture3.jpg	N_1.png	1	N_2.png	2	N_3.png	3	N_4.png	4	Y_1.png	1	Y_2.png	2	Y_3.png	3	Y_4.png	4	confidence.png	1	guessing.png	2	respond_yes.png	3	respond_no.png	4	Word 2 of 12	1	Image 3 of 3	1	coat	3
1	practiceBlock	centre_mouse	6	36	reveal	Picture3.jpg	N_1.png	1	N_2.png	2	N_3.png	3	N_4.png	4	Y_1.png	1	Y_2.png	2	Y_3.png	3	Y_4.png	4	confidence.png	1	guessing.png	2	respond_yes.png	3	respond_no.png	4	Word 2 of 12	1	Image 3 of 3	1	reveal.png	5
1	practiceBlock	practice_present_trial	7	43	yes_4	Picture3.jpg	N_1.png	1	N_2.png	2	N_3.png	3	N_4.png	4	Y_1.png	1	Y_2.png	2	Y_3.png	3	Y_4.png	4	confidence.png	1	guessing.png	2	respond_yes.png	3	respond_no.png	4	Word 3 of 12	1	Image 3 of 3	1	sky	6
1	practiceBlock	centre_mouse	8	53	reveal	Picture3.jpg	N_1.png	1	N_2.png	2	N_3.png	3	N_4.png	4	Y_1.png	1	Y_2.png	2	Y_3.png	3	Y_4.png	4	confidence.png	1	guessing.png	2	respond_yes.png	3	respond_no.png	4	Word 3 of 12	1	Image 3 of 3	1	reveal.png	5
1	practiceBlock	practice_present_trial	9	30	yes_1	Picture3.jpg	N_1.png	1	N_2.png	2	N_3.png	3	N_4.png	4	Y_1.png	1	Y_2.png	2	Y_3.png	3	Y_4.png	4	confidence.png	1	guessing.png	2	respond_yes.png	3	respond_no.png	4	Word 4 of 12	1	Image 3 of 3	1	cloud	3
1	practiceBlock	centre_mouse	10	30	reveal	Picture3.jpg	N_1.png	1	N_2.png	2	N_3.png	3	N_4.png	4	Y_1.png	1	Y_2.png	2	Y_3.png	3	Y_4.png	4	confidence.png	1	guessing.png	2	respond_yes.png	3	respond_no.png	4	Word 4 of 12	1	Image 3 of 3	1	reveal.png	5
1	practiceBlock	practice_absent_trial	11	58	yes_2	Picture3.jpg	N_1.png	1	N_2.png	2	N_3.png	3	N_4.png	4	Y_1.png	1	Y_2.png	2	Y_3.png	3	Y_4.png	4	confidence.png	1	guessing.png	2	respond_yes.png	3	respond_no.png	4	Word 5 of 12	1	Image 3 of 3	1	stand	5
1	practiceBlock	centre_mouse	12	46	reveal	Picture3.jpg	N_1.png	1	N_2.png	2	N_3.png	3	N_4.png	4	Y_1.png	1	Y_2.png	2	Y_3.png	3	Y_4.png	4	confidence.png	1	guessing.png	2	respond_yes.png	3	respond_no.png	4	Word 5 of 12	1	Image 3 of 3	1	reveal.png	5
1	practiceBlock	practice_present_trial	13	63	yes_2	Picture3.jpg	N_1.png	1	N_2.png	2	N_3.png	3	N_4.png	4	Y_1.png	1	Y_2.png	2	Y_3.png	3	Y_4.png	4	confidence.png	1	guessing.png	2	respond_yes.png	3	respond_no.png	4	Word 6 of 12	1	Image 3 of 3	1	blue	5
1	practiceBlock	centre_mouse	14	53	reveal	Picture3.jpg	N_1.png	1	N_2.png	2	N_3.png	3	N_4.png	4	Y_1.png	1	Y_2.png	2	Y_3.png	3	Y_4.png	4	confidence.png	1	guessing.png	2	respond_yes.png	3	respond_no.png	4	Word 6 of 12	1	Image 3 of 3	1	reveal.png	5
1	practiceBlock	practice_absent_trial	15	46	no_4	Picture3.jpg	N_1.png	1	N_2.png	2	N_3.png	3	N_4.png	4	Y_1.png	1	Y_2.png	2	Y_3.png	3	Y_4.png	4	confidence.png	1	guessing.png	2	respond_yes.png	3	respond_no.png	4	Word 7 of 12	1	Image 3 of 3	1	zoomed-in	1
1	practiceBlock	centre_mouse	16	44	reveal	Picture3.jpg	N_1.png	1	N_2.png	2	N_3.png	3	N_4.png	4	Y_1.png	1	Y_2.png	2	Y_3.png	3	Y_4.png	4	confidence.png	1	guessing.png	2	respond_yes.png	3	respond_no.png	4	Word 7 of 12	1	Image 3 of 3	1	reveal.png	5
1	practiceBlock	practice_present_trial	17	39	no_2	Picture3.jpg	N_1.png	1	N_2.png	2	N_3.png	3	N_4.png	4	Y_1.png	1	Y_2.png	2	Y_3.png	3	Y_4.png	4	confidence.png	1	guessing.png	2	respond_yes.png	3	respond_no.png	4	Word 8 of 12	1	Image 3 of 3	1	landscape	4
1	practiceBlock	centre_mouse	18	44	reveal	Picture3.jpg	N_1.png	1	N_2.png	2	N_3.png	3	N_4.png	4	Y_1.png	1	Y_2.png	2	Y_3.png	3	Y_4.png	4	confidence.png	1	guessing.png	2	respond_yes.png	3	respond_no.png	4	Word 8 of 12	1	Image 3 of 3	1	reveal.png	5
1	practiceBlock	practice_absent_trial	19	41	no_3	Picture3.jpg	N_1.png	1	N_2.png	2	N_3.png	3	N_4.png	4	Y_1.png	1	Y_2.png	2	Y_3.png	3	Y_4.png	4	confidence.png	1	guessing.png	2	respond_yes.png	3	respond_no.png	4	Word 9 of 12	1	Image 3 of 3	1	horse	2
1	practiceBlock	centre_mouse	20	37	reveal	Picture3.jpg	N_1.png	1	N_2.png	2	N_3.png	3	N_4.png	4	Y_1.png	1	Y_2.png	2	Y_3.png	3	Y_4.png	4	confidence.png	1	guessing.png	2	respond_yes.png	3	respond_no.png	4	Word 9 of 12	1	Image 3 of 3	1	reveal.png	5
1	practiceBlock	practice_absent_trial	21	45	no_4	Picture3.jpg	N_1.png	1	N_2.png	2	N_3.png	3	N_4.png	4	Y_1.png	1	Y_2.png	2	Y_3.png	3	Y_4.png	4	confidence.png	1	guessing.png	2	respond_yes.png	3	respond_no.png	4	Word 10 of 12	1	Image 3 of 3	1	blue-hat	6
1	practiceBlock	centre_mouse	22	50	reveal	Picture3.jpg	N_1.png	1	N_2.png	2	N_3.png	3	N_4.png	4	Y_1.png	1	Y_2.png	2	Y_3.png	3	Y_4.png	4	confidence.png	1	guessing.png	2	respond_yes.png	3	respond_no.png	4	Word 10 of 12	1	Image 3 of 3	1	reveal.png	5
1	practiceBlock	practice_absent_trial	23	51	yes_3	Picture3.jpg	N_1.png	1	N_2.png	2	N_3.png	3	N_4.png	4	Y_1.png	1	Y_2.png	2	Y_3.png	3	Y_4.png	4	confidence.png	1	guessing.png	2	respond_yes.png	3	respond_no.png	4	Word 11 of 12	1	Image 3 of 3	1	old	4
1	practiceBlock	centre_mouse	24	36	reveal	Picture3.jpg	N_1.png	1	N_2.png	2	N_3.png	3	N_4.png	4	Y_1.png	1	Y_2.png	2	Y_3.png	3	Y_4.png	4	confidence.png	1	guessing.png	2	respond_yes.png	3	respond_no.png	4	Word 11 of 12	1	Image 3 of 3	1	reveal.png	5
1	practiceBlock	practice_present_trial	25	44	no_3	Picture3.jpg	N_1.png	1	N_2.png	2	N_3.png	3	N_4.png	4	Y_1.png	1	Y_2.png	2	Y_3.png	3	Y_4.png	4	confidence.png	1	guessing.png	2	respond_yes.png	3	respond_no.png	4	Word 12 of 12	1	Image 3 of 3	1	mountain	1
1	practiceBlock	centre_mouse	26	41	reveal	Picture3.jpg	N_1.png	1	N_2.png	2	N_3.png	3	N_4.png	4	Y_1.png	1	Y_2.png	2	Y_3.png	3	Y_4.png	4	confidence.png	1	guessing.png	2	respond_yes.png	3	respond_no.png	4	Word 12 of 12	1	Image 3 of 3	1	reveal.png	5
1	practiceBlock	catch_present_trial	27	36	yes_1	Picture3.jpg	N_1.png	1	N_2.png	2	N_3.png	3	N_4.png	4	Y_1.png	1	Y_2.png	2	Y_3.png	3	Y_4.png	4	confidence.png	1	guessing.png	2	respond_yes.png	3	respond_no.png	4	Word 12 of 12	1	Image 3 of 3	1	PRESS: Yes 2	2
1	practiceBlock	centre_mouse	28	43	reveal	Picture3.jpg	N_1.png	1	N_2.png	2	N_3.png	3	N_4.png	4	Y_1.png	1	Y_2.png	2	Y_3.png	3	Y_4.png	4	confidence.png	1	guessing.png	2	respond_yes.png	3	respond_no.png	4	Word 12 of 12	1	Image 3 of 3	1	reveal.png	5
1	practiceBlock	catch_absent_trial	29	28	no_1	Picture3.jpg	N_1.png	1	N_2.png	2	N_3.png	3	N_4.png	4	Y_1.png	1	Y_2.png	2	Y_3.png	3	Y_4.png	4	confidence.png	1	guessing.png	2	respond_yes.png	3	respond_no.png	4	Word 12 of 12	1	Image 3 of 3	1	PRESS: No 2	2
1	practiceBlock	centre_mouse	30	33	reveal	Picture3.jpg	N_1.png	1	N_2.png	2	N_3.png	3	N_4.png	4	Y_1.png	1	Y_2.png	2	Y_3.png	3	Y_4.png	4	confidence.png	1	guessing.png	2	respond_yes.png	3	respond_no.png	4	Word 12 of 12	1	Image 3 of 3	1	reveal.png	5
1	reset	reset	1	200	0	Picture3.jpg	0	0	0	0	0	0	0	0	0	0	0	0	0	0	0	0	0	0	0	0	0	0	0	0	0	0	0	0	0	0
1	testBlock	test	1	1	0	im0000041.jpg	+	1	im0000063.jpg	4	mask4.jpg	4	mask2.jpg	2	mask5.jpg	5	mask5.jpg	5	mask4.jpg	4	0	0	0	0	0	0	0	0	0	0	0	0	0	0	0	0
1	testBlock	centre_mouse	2	39	reveal	im0000041.jpg	N_1.png	1	N_2.png	2	N_3.png	3	N_4.png	4	Y_1.png	1	Y_2.png	2	Y_3.png	3	Y_4.png	4	confidence.png	1	guessing.png	2	respond_yes.png	3	respond_no.png	4	Word 0 of 80	1	Image 1 of 5	1	reveal.png	5
1	testBlock	present_trial	3	51	yes_4	im0000063.jpg	N_1.png	1	N_2.png	2	N_3.png	3	N_4.png	4	Y_1.png	1	Y_2.png	2	Y_3.png	3	Y_4.png	4	confidence.png	1	guessing.png	2	respond_yes.png	3	respond_no.png	4	Word 1 of 80	1	Image 1 of 5	1	nature	14
1	testBlock	centre_mouse	4	49	reveal	im0000063.jpg	N_1.png	1	N_2.png	2	N_3.png	3	N_4.png	4	Y_1.png	1	Y_2.png	2	Y_3.png	3	Y_4.png	4	confidence.png	1	guessing.png	2	respond_yes.png	3	respond_no.png	4	Word 1 of 80	1	Image 1 of 5	1	reveal.png	5
1	testBlock	absent_trial	5	37	yes_4	im0000063.jpg	N_1.png	1	N_2.png	2	N_3.png	3	N_4.png	4	Y_1.png	1	Y_2.png	2	Y_3.png	3	Y_4.png	4	confidence.png	1	guessing.png	2	respond_yes.png	3	respond_no.png	4	Word 2 of 80	1	Image 1 of 5	1	man	28
1	testBlock	centre_mouse	6	42	reveal	im0000063.jpg	N_1.png	1	N_2.png	2	N_3.png	3	N_4.png	4	Y_1.png	1	Y_2.png	2	Y_3.png	3	Y_4.png	4	confidence.png	1	guessing.png	2	respond_yes.png	3	respond_no.png	4	Word 2 of 80	1	Image 1 of 5	1	reveal.png	5
1	testBlock	absent_trial	7	29	no_1	im0000063.jpg	N_1.png	1	N_2.png	2	N_3.png	3	N_4.png	4	Y_1.png	1	Y_2.png	2	Y_3.png	3	Y_4.png	4	confidence.png	1	guessing.png	2	respond_yes.png	3	respond_no.png	4	Word 3 of 80	1	Image 1 of 5	1	bald	27
1	testBlock	centre_mouse	8	54	reveal	im0000063.jpg	N_1.png	1	N_2.png	2	N_3.png	3	N_4.png	4	Y_1.png	1	Y_2.png	2	Y_3.png	3	Y_4.png	4	confidence.png	1	guessing.png	2	respond_yes.png	3	respond_no.png	4	Word 3 of 80	1	Image 1 of 5	1	reveal.png	5
1	testBlock	present_trial	9	46	yes_4	im0000063.jpg	N_1.png	1	N_2.png	2	N_3.png	3	N_4.png	4	Y_1.png	1	Y_2.png	2	Y_3.png	3	Y_4.png	4	confidence.png	1	guessing.png	2	respond_yes.png	3	respond_no.png	4	Word 4 of 80	1	Image 1 of 5	1	dirt	9
1	testBlock	centre_mouse	10	40	reveal	im0000063.jpg	N_1.png	1	N_2.png	2	N_3.png	3	N_4.png	4	Y_1.png	1	Y_2.png	2	Y_3.png	3	Y_4.png	4	confidence.png	1	guessing.png	2	respond_yes.png	3	respond_no.png	4	Word 4 of 80	1	Image 1 of 5	1	reveal.png	5
1	testBlock	present_trial	11	45	yes_4	im0000063.jpg	N_1.png	1	N_2.png	2	N_3.png	3	N_4.png	4	Y_1.png	1	Y_2.png	2	Y_3.png	3	Y_4.png	4	confidence.png	1	guessing.png	2	respond_yes.png	3	respond_no.png	4	Word 5 of 80	1	Image 1 of 5	1	africa	5
1	testBlock	centre_mouse	12	38	reveal	im0000063.jpg	N_1.png	1	N_2.png	2	N_3.png	3	N_4.png	4	Y_1.png	1	Y_2.png	2	Y_3.png	3	Y_4.png	4	confidence.png	1	guessing.png	2	respond_yes.png	3	respond_no.png	4	Word 5 of 80	1	Image 1 of 5	1	reveal.png	5
1	testBlock	absent_trial	13	33	yes_3	im0000063.jpg	N_1.png	1	N_2.png	2	N_3.png	3	N_4.png	4	Y_1.png	1	Y_2.png	2	Y_3.png	3	Y_4.png	4	confidence.png	1	guessing.png	2	respond_yes.png	3	respond_no.png	4	Word 6 of 80	1	Image 1 of 5	1	child	9
1	testBlock	centre_mouse	14	43	reveal	im0000063.jpg	N_1.png	1	N_2.png	2	N_3.png	3	N_4.png	4	Y_1.png	1	Y_2.png	2	Y_3.png	3	Y_4.png	4	confidence.png	1	guessing.png	2	respond_yes.png	3	respond_no.png	4	Word 6 of 80	1	Image 1 of 5	1	reveal.png	5
1	testBlock	present_trial	15	44	yes_4	im0000063.jpg	N_1.png	1	N_2.png	2	N_3.png	3	N_4.png	4	Y_1.png	1	Y_2.png	2	Y_3.png	3	Y_4.png	4	confidence.png	1	guessing.png	2	respond_yes.png	3	respond_no.png	4	Word 7 of 80	1	Image 1 of 5	1	peaceful	33
1	testBlock	centre_mouse	16	46	reveal	im0000063.jpg	N_1.png	1	N_2.png	2	N_3.png	3	N_4.png	4	Y_1.png	1	Y_2.png	2	Y_3.png	3	Y_4.png	4	confidence.png	1	guessing.png	2	respond_yes.png	3	respond_no.png	4	Word 7 of 80	1	Image 1 of 5	1	reveal.png	5
1	testBlock	present_trial	17	27	yes_3	im0000063.jpg	N_1.png	1	N_2.png	2	N_3.png	3	N_4.png	4	Y_1.png	1	Y_2.png	2	Y_3.png	3	Y_4.png	4	confidence.png	1	guessing.png	2	respond_yes.png	3	respond_no.png	4	Word 8 of 80	1	Image 1 of 5	1	lie	35
1	testBlock	centre_mouse	18	60	reveal	im0000063.jpg	N_1.png	1	N_2.png	2	N_3.png	3	N_4.png	4	Y_1.png	1	Y_2.png	2	Y_3.png	3	Y_4.png	4	confidence.png	1	guessing.png	2	respond_yes.png	3	respond_no.png	4	Word 8 of 80	1	Image 1 of 5	1	reveal.png	5
1	testBlock	present_trial	19	32	yes_3	im0000063.jpg	N_1.png	1	N_2.png	2	N_3.png	3	N_4.png	4	Y_1.png	1	Y_2.png	2	Y_3.png	3	Y_4.png	4	confidence.png	1	guessing.png	2	respond_yes.png	3	respond_no.png	4	Word 9 of 80	1	Image 1 of 5	1	sky	22
1	testBlock	centre_mouse	20	29	reveal	im0000063.jpg	N_1.png	1	N_2.png	2	N_3.png	3	N_4.png	4	Y_1.png	1	Y_2.png	2	Y_3.png	3	Y_4.png	4	confidence.png	1	guessing.png	2	respond_yes.png	3	respond_no.png	4	Word 9 of 80	1	Image 1 of 5	1	reveal.png	5
1	testBlock	absent_trial	21	37	no_3	im0000063.jpg	N_1.png	1	N_2.png	2	N_3.png	3	N_4.png	4	Y_1.png	1	Y_2.png	2	Y_3.png	3	Y_4.png	4	confidence.png	1	guessing.png	2	respond_yes.png	3	respond_no.png	4	Word 10 of 80	1	Image 1 of 5	1	pretty	25
1	testBlock	centre_mouse	22	47	reveal	im0000063.jpg	N_1.png	1	N_2.png	2	N_3.png	3	N_4.png	4	Y_1.png	1	Y_2.png	2	Y_3.png	3	Y_4.png	4	confidence.png	1	guessing.png	2	respond_yes.png	3	respond_no.png	4	Word 10 of 80	1	Image 1 of 5	1	reveal.png	5
1	testBlock	present_trial	23	43	no_3	im0000063.jpg	N_1.png	1	N_2.png	2	N_3.png	3	N_4.png	4	Y_1.png	1	Y_2.png	2	Y_3.png	3	Y_4.png	4	confidence.png	1	guessing.png	2	respond_yes.png	3	respond_no.png	4	Word 11 of 80	1	Image 1 of 5	1	baby	3
1	testBlock	centre_mouse	24	46	reveal	im0000063.jpg	N_1.png	1	N_2.png	2	N_3.png	3	N_4.png	4	Y_1.png	1	Y_2.png	2	Y_3.png	3	Y_4.png	4	confidence.png	1	guessing.png	2	respond_yes.png	3	respond_no.png	4	Word 11 of 80	1	Image 1 of 5	1	reveal.png	5
1	testBlock	absent_trial	25	41	no_1	im0000063.jpg	N_1.png	1	N_2.png	2	N_3.png	3	N_4.png	4	Y_1.png	1	Y_2.png	2	Y_3.png	3	Y_4.png	4	confidence.png	1	guessing.png	2	respond_yes.png	3	respond_no.png	4	Word 12 of 80	1	Image 1 of 5	1	celebration	13
1	testBlock	centre_mouse	26	26	reveal	im0000063.jpg	N_1.png	1	N_2.png	2	N_3.png	3	N_4.png	4	Y_1.png	1	Y_2.png	2	Y_3.png	3	Y_4.png	4	confidence.png	1	guessing.png	2	respond_yes.png	3	respond_no.png	4	Word 12 of 80	1	Image 1 of 5	1	reveal.png	5
1	testBlock	absent_trial	27	43	no_3	im0000063.jpg	N_1.png	1	N_2.png	2	N_3.png	3	N_4.png	4	Y_1.png	1	Y_2.png	2	Y_3.png	3	Y_4.png	4	confidence.png	1	guessing.png	2	respond_yes.png	3	respond_no.png	4	Word 13 of 80	1	Image 1 of 5	1	one-leg	30
1	testBlock	centre_mouse	28	31	reveal	im0000063.jpg	N_1.png	1	N_2.png	2	N_3.png	3	N_4.png	4	Y_1.png	1	Y_2.png	2	Y_3.png	3	Y_4.png	4	confidence.png	1	guessing.png	2	respond_yes.png	3	respond_no.png	4	Word 13 of 80	1	Image 1 of 5	1	reveal.png	5
1	testBlock	absent_trial	29	62	no_3	im0000063.jpg	N_1.png	1	N_2.png	2	N_3.png	3	N_4.png	4	Y_1.png	1	Y_2.png	2	Y_3.png	3	Y_4.png	4	confidence.png	1	guessing.png	2	respond_yes.png	3	respond_no.png	4	Word 14 of 80	1	Image 1 of 5	1	ball	18
1	testBlock	centre_mouse	30	55	reveal	im0000063.jpg	N_1.png	1	N_2.png	2	N_3.png	3	N_4.png	4	Y_1.png	1	Y_2.png	2	Y_3.png	3	Y_4.png	4	confidence.png	1	guessing.png	2	respond_yes.png	3	respond_no.png	4	Word 14 of 80	1	Image 1 of 5	1	reveal.png	5
1	testBlock	absent_trial	31	40	no_4	im0000063.jpg	N_1.png	1	N_2.png	2	N_3.png	3	N_4.png	4	Y_1.png	1	Y_2.png	2	Y_3.png	3	Y_4.png	4	confidence.png	1	guessing.png	2	respond_yes.png	3	respond_no.png	4	Word 15 of 80	1	Image 1 of 5	1	accident	33
1	testBlock	centre_mouse	32	38	reveal	im0000063.jpg	N_1.png	1	N_2.png	2	N_3.png	3	N_4.png	4	Y_1.png	1	Y_2.png	2	Y_3.png	3	Y_4.png	4	confidence.png	1	guessing.png	2	respond_yes.png	3	respond_no.png	4	Word 15 of 80	1	Image 1 of 5	1	reveal.png	5
1	testBlock	present_trial	33	38	yes_1	im0000063.jpg	N_1.png	1	N_2.png	2	N_3.png	3	N_4.png	4	Y_1.png	1	Y_2.png	2	Y_3.png	3	Y_4.png	4	confidence.png	1	guessing.png	2	respond_yes.png	3	respond_no.png	4	Word 16 of 80	1	Image 1 of 5	1	touch	17
1	testBlock	centre_mouse	34	34	reveal	im0000063.jpg	N_1.png	1	N_2.png	2	N_3.png	3	N_4.png	4	Y_1.png	1	Y_2.png	2	Y_3.png	3	Y_4.png	4	confidence.png	1	guessing.png	2	respond_yes.png	3	respond_no.png	4	Word 16 of 80	1	Image 1 of 5	1	reveal.png	5
1	testBlock	present_trial	35	49	yes_1	im0000063.jpg	N_1.png	1	N_2.png	2	N_3.png	3	N_4.png	4	Y_1.png	1	Y_2.png	2	Y_3.png	3	Y_4.png	4	confidence.png	1	guessing.png	2	respond_yes.png	3	respond_no.png	4	Word 17 of 80	1	Image 1 of 5	1	animal	7
1	testBlock	centre_mouse	36	27	reveal	im0000063.jpg	N_1.png	1	N_2.png	2	N_3.png	3	N_4.png	4	Y_1.png	1	Y_2.png	2	Y_3.png	3	Y_4.png	4	confidence.png	1	guessing.png	2	respond_yes.png	3	respond_no.png	4	Word 17 of 80	1	Image 1 of 5	1	reveal.png	5
1	testBlock	absent_trial	37	55	no_3	im0000063.jpg	N_1.png	1	N_2.png	2	N_3.png	3	N_4.png	4	Y_1.png	1	Y_2.png	2	Y_3.png	3	Y_4.png	4	confidence.png	1	guessing.png	2	respond_yes.png	3	respond_no.png	4	Word 18 of 80	1	Image 1 of 5	1	small-stucture	6
1	testBlock	centre_mouse	38	38	reveal	im0000063.jpg	N_1.png	1	N_2.png	2	N_3.png	3	N_4.png	4	Y_1.png	1	Y_2.png	2	Y_3.png	3	Y_4.png	4	confidence.png	1	guessing.png	2	respond_yes.png	3	respond_no.png	4	Word 18 of 80	1	Image 1 of 5	1	reveal.png	5
1	testBlock	absent_trial	39	55	no_4	im0000063.jpg	N_1.png	1	N_2.png	2	N_3.png	3	N_4.png	4	Y_1.png	1	Y_2.png	2	Y_3.png	3	Y_4.png	4	confidence.png	1	guessing.png	2	respond_yes.png	3	respond_no.png	4	Word 19 of 80	1	Image 1 of 5	1	rose-ball	20
1	testBlock	centre_mouse	40	54	reveal	im0000063.jpg	N_1.png	1	N_2.png	2	N_3.png	3	N_4.png	4	Y_1.png	1	Y_2.png	2	Y_3.png	3	Y_4.png	4	confidence.png	1	guessing.png	2	respond_yes.png	3	respond_no.png	4	Word 19 of 80	1	Image 1 of 5	1	reveal.png	5
1	testBlock	present_trial	41	38	no_4	im0000063.jpg	N_1.png	1	N_2.png	2	N_3.png	3	N_4.png	4	Y_1.png	1	Y_2.png	2	Y_3.png	3	Y_4.png	4	confidence.png	1	guessing.png	2	respond_yes.png	3	respond_no.png	4	Word 20 of 80	1	Image 1 of 5	1	blue-sky	15
1	testBlock	centre_mouse	42	28	reveal	im0000063.jpg	N_1.png	1	N_2.png	2	N_3.png	3	N_4.png	4	Y_1.png	1	Y_2.png	2	Y_3.png	3	Y_4.png	4	confidence.png	1	guessing.png	2	respond_yes.png	3	respond_no.png	4	Word 20 of 80	1	Image 1 of 5	1	reveal.png	5
1	testBlock	catch_absent_trial	43	34	no_3	im0000063.jpg	N_1.png	1	N_2.png	2	N_3.png	3	N_4.png	4	Y_1.png	1	Y_2.png	2	Y_3.png	3	Y_4.png	4	confidence.png	1	guessing.png	2	respond_yes.png	3	respond_no.png	4	Word 20 of 80	1	Image 1 of 5	1	PRESS: No 3	3
1	testBlock	centre_mouse	44	51	reveal	im0000063.jpg	N_1.png	1	N_2.png	2	N_3.png	3	N_4.png	4	Y_1.png	1	Y_2.png	2	Y_3.png	3	Y_4.png	4	confidence.png	1	guessing.png	2	respond_yes.png	3	respond_no.png	4	Word 20 of 80	1	Image 1 of 5	1	reveal.png	5
1	testBlock	present_trial	45	29	no_3	im0000063.jpg	N_1.png	1	N_2.png	2	N_3.png	3	N_4.png	4	Y_1.png	1	Y_2.png	2	Y_3.png	3	Y_4.png	4	confidence.png	1	guessing.png	2	respond_yes.png	3	respond_no.png	4	Word 21 of 80	1	Image 1 of 5	1	big-hippo	27
1	testBlock	centre_mouse	46	54	reveal	im0000063.jpg	N_1.png	1	N_2.png	2	N_3.png	3	N_4.png	4	Y_1.png	1	Y_2.png	2	Y_3.png	3	Y_4.png	4	confidence.png	1	guessing.png	2	respond_yes.png	3	respond_no.png	4	Word 21 of 80	1	Image 1 of 5	1	reveal.png	5
1	testBlock	present_trial	47	45	yes_4	im0000063.jpg	N_1.png	1	N_2.png	2	N_3.png	3	N_4.png	4	Y_1.png	1	Y_2.png	2	Y_3.png	3	Y_4.png	4	confidence.png	1	guessing.png	2	respond_yes.png	3	respond_no.png	4	Word 22 of 80	1	Image 1 of 5	1	friendly	39
1	testBlock	centre_mouse	48	56	reveal	im0000063.jpg	N_1.png	1	N_2.png	2	N_3.png	3	N_4.png	4	Y_1.png	1	Y_2.png	2	Y_3.png	3	Y_4.png	4	confidence.png	1	guessing.png	2	respond_yes.png	3	respond_no.png	4	Word 22 of 80	1	Image 1 of 5	1	reveal.png	5
1	testBlock	present_trial	49	17	no_3	im0000063.jpg	N_1.png	1	N_2.png	2	N_3.png	3	N_4.png	4	Y_1.png	1	Y_2.png	2	Y_3.png	3	Y_4.png	4	confidence.png	1	guessing.png	2	respond_yes.png	3	respond_no.png	4	Word 23 of 80	1	Image 1 of 5	1	outdoor	25
1	testBlock	centre_mouse	50	43	reveal	im0000063.jpg	N_1.png	1	N_2.png	2	N_3.png	3	N_4.png	4	Y_1.png	1	Y_2.png	2	Y_3.png	3	Y_4.png	4	confidence.png	1	guessing.png	2	respond_yes.png	3	respond_no.png	4	Word 23 of 80	1	Image 1 of 5	1	reveal.png	5
1	testBlock	present_trial	51	34	yes_4	im0000063.jpg	N_1.png	1	N_2.png	2	N_3.png	3	N_4.png	4	Y_1.png	1	Y_2.png	2	Y_3.png	3	Y_4.png	4	confidence.png	1	guessing.png	2	respond_yes.png	3	respond_no.png	4	Word 24 of 80	1	Image 1 of 5	1	rest	24
1	testBlock	centre_mouse	52	48	reveal	im0000063.jpg	N_1.png	1	N_2.png	2	N_3.png	3	N_4.png	4	Y_1.png	1	Y_2.png	2	Y_3.png	3	Y_4.png	4	confidence.png	1	guessing.png	2	respond_yes.png	3	respond_no.png	4	Word 24 of 80	1	Image 1 of 5	1	reveal.png	5
1	testBlock	present_trial	53	36	yes_3	im0000063.jpg	N_1.png	1	N_2.png	2	N_3.png	3	N_4.png	4	Y_1.png	1	Y_2.png	2	Y_3.png	3	Y_4.png	4	confidence.png	1	guessing.png	2	respond_yes.png	3	respond_no.png	4	Word 25 of 80	1	Image 1 of 5	1	stand	37
1	testBlock	centre_mouse	54	59	reveal	im0000063.jpg	N_1.png	1	N_2.png	2	N_3.png	3	N_4.png	4	Y_1.png	1	Y_2.png	2	Y_3.png	3	Y_4.png	4	confidence.png	1	guessing.png	2	respond_yes.png	3	respond_no.png	4	Word 25 of 80	1	Image 1 of 5	1	reveal.png	5
1	testBlock	absent_trial	55	21	no_4	im0000063.jpg	N_1.png	1	N_2.png	2	N_3.png	3	N_4.png	4	Y_1.png	1	Y_2.png	2	Y_3.png	3	Y_4.png	4	confidence.png	1	guessing.png	2	respond_yes.png	3	respond_no.png	4	Word 26 of 80	1	Image 1 of 5	1	life	4
1	testBlock	centre_mouse	56	42	reveal	im0000063.jpg	N_1.png	1	N_2.png	2	N_3.png	3	N_4.png	4	Y_1.png	1	Y_2.png	2	Y_3.png	3	Y_4.png	4	confidence.png	1	guessing.png	2	respond_yes.png	3	respond_no.png	4	Word 26 of 80	1	Image 1 of 5	1	reveal.png	5
1	testBlock	present_trial	57	41	yes_3	im0000063.jpg	N_1.png	1	N_2.png	2	N_3.png	3	N_4.png	4	Y_1.png	1	Y_2.png	2	Y_3.png	3	Y_4.png	4	confidence.png	1	guessing.png	2	respond_yes.png	3	respond_no.png	4	Word 27 of 80	1	Image 1 of 5	1	love	40
1	testBlock	centre_mouse	58	36	reveal	im0000063.jpg	N_1.png	1	N_2.png	2	N_3.png	3	N_4.png	4	Y_1.png	1	Y_2.png	2	Y_3.png	3	Y_4.png	4	confidence.png	1	guessing.png	2	respond_yes.png	3	respond_no.png	4	Word 27 of 80	1	Image 1 of 5	1	reveal.png	5
1	testBlock	absent_trial	59	38	no_4	im0000063.jpg	N_1.png	1	N_2.png	2	N_3.png	3	N_4.png	4	Y_1.png	1	Y_2.png	2	Y_3.png	3	Y_4.png	4	confidence.png	1	guessing.png	2	respond_yes.png	3	respond_no.png	4	Word 28 of 80	1	Image 1 of 5	1	street	38
1	testBlock	centre_mouse	60	49	reveal	im0000063.jpg	N_1.png	1	N_2.png	2	N_3.png	3	N_4.png	4	Y_1.png	1	Y_2.png	2	Y_3.png	3	Y_4.png	4	confidence.png	1	guessing.png	2	respond_yes.png	3	respond_no.png	4	Word 28 of 80	1	Image 1 of 5	1	reveal.png	5
1	testBlock	absent_trial	61	35	no_4	im0000063.jpg	N_1.png	1	N_2.png	2	N_3.png	3	N_4.png	4	Y_1.png	1	Y_2.png	2	Y_3.png	3	Y_4.png	4	confidence.png	1	guessing.png	2	respond_yes.png	3	respond_no.png	4	Word 29 of 80	1	Image 1 of 5	1	day-time	11
1	testBlock	centre_mouse	62	60	reveal	im0000063.jpg	N_1.png	1	N_2.png	2	N_3.png	3	N_4.png	4	Y_1.png	1	Y_2.png	2	Y_3.png	3	Y_4.png	4	confidence.png	1	guessing.png	2	respond_yes.png	3	respond_no.png	4	Word 29 of 80	1	Image 1 of 5	1	reveal.png	5
1	testBlock	absent_trial	63	67	yes_1	im0000063.jpg	N_1.png	1	N_2.png	2	N_3.png	3	N_4.png	4	Y_1.png	1	Y_2.png	2	Y_3.png	3	Y_4.png	4	confidence.png	1	guessing.png	2	respond_yes.png	3	respond_no.png	4	Word 30 of 80	1	Image 1 of 5	1	awesome	24
1	testBlock	centre_mouse	64	38	reveal	im0000063.jpg	N_1.png	1	N_2.png	2	N_3.png	3	N_4.png	4	Y_1.png	1	Y_2.png	2	Y_3.png	3	Y_4.png	4	confidence.png	1	guessing.png	2	respond_yes.png	3	respond_no.png	4	Word 30 of 80	1	Image 1 of 5	1	reveal.png	5
1	testBlock	absent_trial	65	45	no_3	im0000063.jpg	N_1.png	1	N_2.png	2	N_3.png	3	N_4.png	4	Y_1.png	1	Y_2.png	2	Y_3.png	3	Y_4.png	4	confidence.png	1	guessing.png	2	respond_yes.png	3	respond_no.png	4	Word 31 of 80	1	Image 1 of 5	1	atv	1
1	testBlock	centre_mouse	66	59	reveal	im0000063.jpg	N_1.png	1	N_2.png	2	N_3.png	3	N_4.png	4	Y_1.png	1	Y_2.png	2	Y_3.png	3	Y_4.png	4	confidence.png	1	guessing.png	2	respond_yes.png	3	respond_no.png	4	Word 31 of 80	1	Image 1 of 5	1	reveal.png	5
1	testBlock	present_trial	67	48	yes_4	im0000063.jpg	N_1.png	1	N_2.png	2	N_3.png	3	N_4.png	4	Y_1.png	1	Y_2.png	2	Y_3.png	3	Y_4.png	4	confidence.png	1	guessing.png	2	respond_yes.png	3	respond_no.png	4	Word 32 of 80	1	Image 1 of 5	1	grey	16
1	testBlock	centre_mouse	68	43	reveal	im0000063.jpg	N_1.png	1	N_2.png	2	N_3.png	3	N_4.png	4	Y_1.png	1	Y_2.png	2	Y_3.png	3	Y_4.png	4	confidence.png	1	guessing.png	2	respond_yes.png	3	respond_no.png	4	Word 32 of 80	1	Image 1 of 5	1	reveal.png	5
1	testBlock	present_trial	69	27	yes_3	im0000063.jpg	N_1.png	1	N_2.png	2	N_3.png	3	N_4.png	4	Y_1.png	1	Y_2.png	2	Y_3.png	3	Y_4.png	4	confidence.png	1	guessing.png	2	respond_yes.png	3	respond_no.png	4	Word 33 of 80	1	Image 1 of 5	1	lake	19
1	testBlock	centre_mouse	70	29	reveal	im0000063.jpg	N_1.png	1	N_2.png	2	N_3.png	3	N_4.png	4	Y_1.png	1	Y_2.png	2	Y_3.png	3	Y_4.png	4	confidence.png	1	guessing.png	2	respond_yes.png	3	respond_no.png	4	Word 33 of 80	1	Image 1 of 5	1	reveal.png	5
1	testBlock	present_trial	71	38	yes_4	im0000063.jpg	N_1.png	1	N_2.png	2	N_3.png	3	N_4.png	4	Y_1.png	1	Y_2.png	2	Y_3.png	3	Y_4.png	4	confidence.png	1	guessing.png	2	respond_yes.png	3	respond_no.png	4	Word 34 of 80	1	Image 1 of 5	1	field	30
1	testBlock	centre_mouse	72	37	reveal	im0000063.jpg	N_1.png	1	N_2.png	2	N_3.png	3	N_4.png	4	Y_1.png	1	Y_2.png	2	Y_3.png	3	Y_4.png	4	confidence.png	1	guessing.png	2	respond_yes.png	3	respond_no.png	4	Word 34 of 80	1	Image 1 of 5	1	reveal.png	5
1	testBlock	present_trial	73	35	yes_4	im0000063.jpg	N_1.png	1	N_2.png	2	N_3.png	3	N_4.png	4	Y_1.png	1	Y_2.png	2	Y_3.png	3	Y_4.png	4	confidence.png	1	guessing.png	2	respond_yes.png	3	respond_no.png	4	Word 35 of 80	1	Image 1 of 5	1	herbivore	31
1	testBlock	centre_mouse	74	55	reveal	im0000063.jpg	N_1.png	1	N_2.png	2	N_3.png	3	N_4.png	4	Y_1.png	1	Y_2.png	2	Y_3.png	3	Y_4.png	4	confidence.png	1	guessing.png	2	respond_yes.png	3	respond_no.png	4	Word 35 of 80	1	Image 1 of 5	1	reveal.png	5
1	testBlock	present_trial	75	44	yes_3	im0000063.jpg	N_1.png	1	N_2.png	2	N_3.png	3	N_4.png	4	Y_1.png	1	Y_2.png	2	Y_3.png	3	Y_4.png	4	confidence.png	1	guessing.png	2	respond_yes.png	3	respond_no.png	4	Word 36 of 80	1	Image 1 of 5	1	large	32
1	testBlock	centre_mouse	76	38	reveal	im0000063.jpg	N_1.png	1	N_2.png	2	N_3.png	3	N_4.png	4	Y_1.png	1	Y_2.png	2	Y_3.png	3	Y_4.png	4	confidence.png	1	guessing.png	2	respond_yes.png	3	respond_no.png	4	Word 36 of 80	1	Image 1 of 5	1	reveal.png	5
1	testBlock	present_trial	77	44	no_4	im0000063.jpg	N_1.png	1	N_2.png	2	N_3.png	3	N_4.png	4	Y_1.png	1	Y_2.png	2	Y_3.png	3	Y_4.png	4	confidence.png	1	guessing.png	2	respond_yes.png	3	respond_no.png	4	Word 37 of 80	1	Image 1 of 5	1	daylight	28
1	testBlock	centre_mouse	78	64	reveal	im0000063.jpg	N_1.png	1	N_2.png	2	N_3.png	3	N_4.png	4	Y_1.png	1	Y_2.png	2	Y_3.png	3	Y_4.png	4	confidence.png	1	guessing.png	2	respond_yes.png	3	respond_no.png	4	Word 37 of 80	1	Image 1 of 5	1	reveal.png	5
1	testBlock	present_trial	79	35	no_4	im0000063.jpg	N_1.png	1	N_2.png	2	N_3.png	3	N_4.png	4	Y_1.png	1	Y_2.png	2	Y_3.png	3	Y_4.png	4	confidence.png	1	guessing.png	2	respond_yes.png	3	respond_no.png	4	Word 38 of 80	1	Image 1 of 5	1	hippo	2
1	testBlock	centre_mouse	80	37	reveal	im0000063.jpg	N_1.png	1	N_2.png	2	N_3.png	3	N_4.png	4	Y_1.png	1	Y_2.png	2	Y_3.png	3	Y_4.png	4	confidence.png	1	guessing.png	2	respond_yes.png	3	respond_no.png	4	Word 38 of 80	1	Image 1 of 5	1	reveal.png	5
1	testBlock	absent_trial	81	33	no_3	im0000063.jpg	N_1.png	1	N_2.png	2	N_3.png	3	N_4.png	4	Y_1.png	1	Y_2.png	2	Y_3.png	3	Y_4.png	4	confidence.png	1	guessing.png	2	respond_yes.png	3	respond_no.png	4	Word 39 of 80	1	Image 1 of 5	1	green	19
1	testBlock	centre_mouse	82	51	reveal	im0000063.jpg	N_1.png	1	N_2.png	2	N_3.png	3	N_4.png	4	Y_1.png	1	Y_2.png	2	Y_3.png	3	Y_4.png	4	confidence.png	1	guessing.png	2	respond_yes.png	3	respond_no.png	4	Word 39 of 80	1	Image 1 of 5	1	reveal.png	5
1	testBlock	absent_trial	83	61	no_4	im0000063.jpg	N_1.png	1	N_2.png	2	N_3.png	3	N_4.png	4	Y_1.png	1	Y_2.png	2	Y_3.png	3	Y_4.png	4	confidence.png	1	guessing.png	2	respond_yes.png	3	respond_no.png	4	Word 40 of 80	1	Image 1 of 5	1	wonderful	2
1	testBlock	centre_mouse	84	51	reveal	im0000063.jpg	N_1.png	1	N_2.png	2	N_3.png	3	N_4.png	4	Y_1.png	1	Y_2.png	2	Y_3.png	3	Y_4.png	4	confidence.png	1	guessing.png	2	respond_yes.png	3	respond_no.png	4	Word 40 of 80	1	Image 1 of 5	1	reveal.png	5
1	testBlock	absent_trial	85	44	no_4	im0000063.jpg	N_1.png	1	N_2.png	2	N_3.png	3	N_4.png	4	Y_1.png	1	Y_2.png	2	Y_3.png	3	Y_4.png	4	confidence.png	1	guessing.png	2	respond_yes.png	3	respond_no.png	4	Word 41 of 80	1	Image 1 of 5	1	head	32
1	testBlock	centre_mouse	86	54	reveal	im0000063.jpg	N_1.png	1	N_2.png	2	N_3.png	3	N_4.png	4	Y_1.png	1	Y_2.png	2	Y_3.png	3	Y_4.png	4	confidence.png	1	guessing.png	2	respond_yes.png	3	respond_no.png	4	Word 41 of 80	1	Image 1 of 5	1	reveal.png	5
1	testBlock	absent_trial	87	39	no_4	im0000063.jpg	N_1.png	1	N_2.png	2	N_3.png	3	N_4.png	4	Y_1.png	1	Y_2.png	2	Y_3.png	3	Y_4.png	4	confidence.png	1	guessing.png	2	respond_yes.png	3	respond_no.png	4	Word 42 of 80	1	Image 1 of 5	1	water-bottle	21
1	testBlock	centre_mouse	88	41	reveal	im0000063.jpg	N_1.png	1	N_2.png	2	N_3.png	3	N_4.png	4	Y_1.png	1	Y_2.png	2	Y_3.png	3	Y_4.png	4	confidence.png	1	guessing.png	2	respond_yes.png	3	respond_no.png	4	Word 42 of 80	1	Image 1 of 5	1	reveal.png	5
1	testBlock	present_trial	89	66	no_4	im0000063.jpg	N_1.png	1	N_2.png	2	N_3.png	3	N_4.png	4	Y_1.png	1	Y_2.png	2	Y_3.png	3	Y_4.png	4	confidence.png	1	guessing.png	2	respond_yes.png	3	respond_no.png	4	Word 43 of 80	1	Image 1 of 5	1	rhinoceros	20
1	testBlock	centre_mouse	90	52	reveal	im0000063.jpg	N_1.png	1	N_2.png	2	N_3.png	3	N_4.png	4	Y_1.png	1	Y_2.png	2	Y_3.png	3	Y_4.png	4	confidence.png	1	guessing.png	2	respond_yes.png	3	respond_no.png	4	Word 43 of 80	1	Image 1 of 5	1	reveal.png	5
1	testBlock	absent_trial	91	38	no_4	im0000063.jpg	N_1.png	1	N_2.png	2	N_3.png	3	N_4.png	4	Y_1.png	1	Y_2.png	2	Y_3.png	3	Y_4.png	4	confidence.png	1	guessing.png	2	respond_yes.png	3	respond_no.png	4	Word 44 of 80	1	Image 1 of 5	1	apple	23
1	testBlock	centre_mouse	92	51	reveal	im0000063.jpg	N_1.png	1	N_2.png	2	N_3.png	3	N_4.png	4	Y_1.png	1	Y_2.png	2	Y_3.png	3	Y_4.png	4	confidence.png	1	guessing.png	2	respond_yes.png	3	respond_no.png	4	Word 44 of 80	1	Image 1 of 5	1	reveal.png	5
1	testBlock	absent_trial	93	57	no_4	im0000063.jpg	N_1.png	1	N_2.png	2	N_3.png	3	N_4.png	4	Y_1.png	1	Y_2.png	2	Y_3.png	3	Y_4.png	4	confidence.png	1	guessing.png	2	respond_yes.png	3	respond_no.png	4	Word 45 of 80	1	Image 1 of 5	1	vulture	22
1	testBlock	centre_mouse	94	41	reveal	im0000063.jpg	N_1.png	1	N_2.png	2	N_3.png	3	N_4.png	4	Y_1.png	1	Y_2.png	2	Y_3.png	3	Y_4.png	4	confidence.png	1	guessing.png	2	respond_yes.png	3	respond_no.png	4	Word 45 of 80	1	Image 1 of 5	1	reveal.png	5
1	testBlock	absent_trial	95	32	no_3	im0000063.jpg	N_1.png	1	N_2.png	2	N_3.png	3	N_4.png	4	Y_1.png	1	Y_2.png	2	Y_3.png	3	Y_4.png	4	confidence.png	1	guessing.png	2	respond_yes.png	3	respond_no.png	4	Word 46 of 80	1	Image 1 of 5	1	shine	34
1	testBlock	centre_mouse	96	20	reveal	im0000063.jpg	N_1.png	1	N_2.png	2	N_3.png	3	N_4.png	4	Y_1.png	1	Y_2.png	2	Y_3.png	3	Y_4.png	4	confidence.png	1	guessing.png	2	respond_yes.png	3	respond_no.png	4	Word 46 of 80	1	Image 1 of 5	1	reveal.png	5
1	testBlock	present_trial	97	37	yes_3	im0000063.jpg	N_1.png	1	N_2.png	2	N_3.png	3	N_4.png	4	Y_1.png	1	Y_2.png	2	Y_3.png	3	Y_4.png	4	confidence.png	1	guessing.png	2	respond_yes.png	3	respond_no.png	4	Word 47 of 80	1	Image 1 of 5	1	grass	21
1	testBlock	centre_mouse	98	43	reveal	im0000063.jpg	N_1.png	1	N_2.png	2	N_3.png	3	N_4.png	4	Y_1.png	1	Y_2.png	2	Y_3.png	3	Y_4.png	4	confidence.png	1	guessing.png	2	respond_yes.png	3	respond_no.png	4	Word 47 of 80	1	Image 1 of 5	1	reveal.png	5
1	testBlock	absent_trial	99	39	no_4	im0000063.jpg	N_1.png	1	N_2.png	2	N_3.png	3	N_4.png	4	Y_1.png	1	Y_2.png	2	Y_3.png	3	Y_4.png	4	confidence.png	1	guessing.png	2	respond_yes.png	3	respond_no.png	4	Word 48 of 80	1	Image 1 of 5	1	snowy	5
1	testBlock	centre_mouse	100	33	reveal	im0000063.jpg	N_1.png	1	N_2.png	2	N_3.png	3	N_4.png	4	Y_1.png	1	Y_2.png	2	Y_3.png	3	Y_4.png	4	confidence.png	1	guessing.png	2	respond_yes.png	3	respond_no.png	4	Word 48 of 80	1	Image 1 of 5	1	reveal.png	5
1	testBlock	absent_trial	101	50	no_2	im0000063.jpg	N_1.png	1	N_2.png	2	N_3.png	3	N_4.png	4	Y_1.png	1	Y_2.png	2	Y_3.png	3	Y_4.png	4	confidence.png	1	guessing.png	2	respond_yes.png	3	respond_no.png	4	Word 49 of 80	1	Image 1 of 5	1	gross	31
1	testBlock	centre_mouse	102	53	reveal	im0000063.jpg	N_1.png	1	N_2.png	2	N_3.png	3	N_4.png	4	Y_1.png	1	Y_2.png	2	Y_3.png	3	Y_4.png	4	confidence.png	1	guessing.png	2	respond_yes.png	3	respond_no.png	4	Word 49 of 80	1	Image 1 of 5	1	reveal.png	5
1	testBlock	absent_trial	103	51	no_3	im0000063.jpg	N_1.png	1	N_2.png	2	N_3.png	3	N_4.png	4	Y_1.png	1	Y_2.png	2	Y_3.png	3	Y_4.png	4	confidence.png	1	guessing.png	2	respond_yes.png	3	respond_no.png	4	Word 50 of 80	1	Image 1 of 5	1	hike	12
1	testBlock	centre_mouse	104	45	reveal	im0000063.jpg	N_1.png	1	N_2.png	2	N_3.png	3	N_4.png	4	Y_1.png	1	Y_2.png	2	Y_3.png	3	Y_4.png	4	confidence.png	1	guessing.png	2	respond_yes.png	3	respond_no.png	4	Word 50 of 80	1	Image 1 of 5	1	reveal.png	5
1	testBlock	catch_absent_trial	105	27	no_2	im0000063.jpg	N_1.png	1	N_2.png	2	N_3.png	3	N_4.png	4	Y_1.png	1	Y_2.png	2	Y_3.png	3	Y_4.png	4	confidence.png	1	guessing.png	2	respond_yes.png	3	respond_no.png	4	Word 50 of 80	1	Image 1 of 5	1	PRESS: No 4	4
1	testBlock	centre_mouse	106	50	reveal	im0000063.jpg	N_1.png	1	N_2.png	2	N_3.png	3	N_4.png	4	Y_1.png	1	Y_2.png	2	Y_3.png	3	Y_4.png	4	confidence.png	1	guessing.png	2	respond_yes.png	3	respond_no.png	4	Word 50 of 80	1	Image 1 of 5	1	reveal.png	5
1	testBlock	absent_trial	107	44	no_4	im0000063.jpg	N_1.png	1	N_2.png	2	N_3.png	3	N_4.png	4	Y_1.png	1	Y_2.png	2	Y_3.png	3	Y_4.png	4	confidence.png	1	guessing.png	2	respond_yes.png	3	respond_no.png	4	Word 51 of 80	1	Image 1 of 5	1	grass	8
1	testBlock	centre_mouse	108	49	reveal	im0000063.jpg	N_1.png	1	N_2.png	2	N_3.png	3	N_4.png	4	Y_1.png	1	Y_2.png	2	Y_3.png	3	Y_4.png	4	confidence.png	1	guessing.png	2	respond_yes.png	3	respond_no.png	4	Word 51 of 80	1	Image 1 of 5	1	reveal.png	5
1	testBlock	absent_trial	109	46	yes_1	im0000063.jpg	N_1.png	1	N_2.png	2	N_3.png	3	N_4.png	4	Y_1.png	1	Y_2.png	2	Y_3.png	3	Y_4.png	4	confidence.png	1	guessing.png	2	respond_yes.png	3	respond_no.png	4	Word 52 of 80	1	Image 1 of 5	1	sneaker	40
1	testBlock	centre_mouse	110	49	reveal	im0000063.jpg	N_1.png	1	N_2.png	2	N_3.png	3	N_4.png	4	Y_1.png	1	Y_2.png	2	Y_3.png	3	Y_4.png	4	confidence.png	1	guessing.png	2	respond_yes.png	3	respond_no.png	4	Word 52 of 80	1	Image 1 of 5	1	reveal.png	5
1	testBlock	absent_trial	111	53	no_3	im0000063.jpg	N_1.png	1	N_2.png	2	N_3.png	3	N_4.png	4	Y_1.png	1	Y_2.png	2	Y_3.png	3	Y_4.png	4	confidence.png	1	guessing.png	2	respond_yes.png	3	respond_no.png	4	Word 53 of 80	1	Image 1 of 5	1	bathroom	16
1	testBlock	centre_mouse	112	51	reveal	im0000063.jpg	N_1.png	1	N_2.png	2	N_3.png	3	N_4.png	4	Y_1.png	1	Y_2.png	2	Y_3.png	3	Y_4.png	4	confidence.png	1	guessing.png	2	respond_yes.png	3	respond_no.png	4	Word 53 of 80	1	Image 1 of 5	1	reveal.png	5
1	testBlock	present_trial	113	24	yes_3	im0000063.jpg	N_1.png	1	N_2.png	2	N_3.png	3	N_4.png	4	Y_1.png	1	Y_2.png	2	Y_3.png	3	Y_4.png	4	confidence.png	1	guessing.png	2	respond_yes.png	3	respond_no.png	4	Word 54 of 80	1	Image 1 of 5	1	bath	18
1	testBlock	centre_mouse	114	48	reveal	im0000063.jpg	N_1.png	1	N_2.png	2	N_3.png	3	N_4.png	4	Y_1.png	1	Y_2.png	2	Y_3.png	3	Y_4.png	4	confidence.png	1	guessing.png	2	respond_yes.png	3	respond_no.png	4	Word 54 of 80	1	Image 1 of 5	1	reveal.png	5
1	testBlock	absent_trial	115	39	yes_4	im0000063.jpg	N_1.png	1	N_2.png	2	N_3.png	3	N_4.png	4	Y_1.png	1	Y_2.png	2	Y_3.png	3	Y_4.png	4	confidence.png	1	guessing.png	2	respond_yes.png	3	respond_no.png	4	Word 55 of 80	1	Image 1 of 5	1	woman	35
1	testBlock	centre_mouse	116	46	reveal	im0000063.jpg	N_1.png	1	N_2.png	2	N_3.png	3	N_4.png	4	Y_1.png	1	Y_2.png	2	Y_3.png	3	Y_4.png	4	confidence.png	1	guessing.png	2	respond_yes.png	3	respond_no.png	4	Word 55 of 80	1	Image 1 of 5	1	reveal.png	5
1	testBlock	absent_trial	117	40	yes_1	im0000063.jpg	N_1.png	1	N_2.png	2	N_3.png	3	N_4.png	4	Y_1.png	1	Y_2.png	2	Y_3.png	3	Y_4.png	4	confidence.png	1	guessing.png	2	respond_yes.png	3	respond_no.png	4	Word 56 of 80	1	Image 1 of 5	1	amaze	39
1	testBlock	centre_mouse	118	35	reveal	im0000063.jpg	N_1.png	1	N_2.png	2	N_3.png	3	N_4.png	4	Y_1.png	1	Y_2.png	2	Y_3.png	3	Y_4.png	4	confidence.png	1	guessing.png	2	respond_yes.png	3	respond_no.png	4	Word 56 of 80	1	Image 1 of 5	1	reveal.png	5
1	testBlock	absent_trial	119	44	no_3	im0000063.jpg	N_1.png	1	N_2.png	2	N_3.png	3	N_4.png	4	Y_1.png	1	Y_2.png	2	Y_3.png	3	Y_4.png	4	confidence.png	1	guessing.png	2	respond_yes.png	3	respond_no.png	4	Word 57 of 80	1	Image 1 of 5	1	old	37
1	testBlock	centre_mouse	120	45	reveal	im0000063.jpg	N_1.png	1	N_2.png	2	N_3.png	3	N_4.png	4	Y_1.png	1	Y_2.png	2	Y_3.png	3	Y_4.png	4	confidence.png	1	guessing.png	2	respond_yes.png	3	respond_no.png	4	Word 57 of 80	1	Image 1 of 5	1	reveal.png	5
1	testBlock	present_trial	121	28	yes_1	im0000063.jpg	N_1.png	1	N_2.png	2	N_3.png	3	N_4.png	4	Y_1.png	1	Y_2.png	2	Y_3.png	3	Y_4.png	4	confidence.png	1	guessing.png	2	respond_yes.png	3	respond_no.png	4	Word 58 of 80	1	Image 1 of 5	1	fat	34
1	testBlock	centre_mouse	122	42	reveal	im0000063.jpg	N_1.png	1	N_2.png	2	N_3.png	3	N_4.png	4	Y_1.png	1	Y_2.png	2	Y_3.png	3	Y_4.png	4	confidence.png	1	guessing.png	2	respond_yes.png	3	respond_no.png	4	Word 58 of 80	1	Image 1 of 5	1	reveal.png	5
1	testBlock	present_trial	123	30	yes_3	im0000063.jpg	N_1.png	1	N_2.png	2	N_3.png	3	N_4.png	4	Y_1.png	1	Y_2.png	2	Y_3.png	3	Y_4.png	4	confidence.png	1	guessing.png	2	respond_yes.png	3	respond_no.png	4	Word 59 of 80	1	Image 1 of 5	1	river	10
1	testBlock	centre_mouse	124	34	reveal	im0000063.jpg	N_1.png	1	N_2.png	2	N_3.png	3	N_4.png	4	Y_1.png	1	Y_2.png	2	Y_3.png	3	Y_4.png	4	confidence.png	1	guessing.png	2	respond_yes.png	3	respond_no.png	4	Word 59 of 80	1	Image 1 of 5	1	reveal.png	5
1	testBlock	absent_trial	125	49	no_4	im0000063.jpg	N_1.png	1	N_2.png	2	N_3.png	3	N_4.png	4	Y_1.png	1	Y_2.png	2	Y_3.png	3	Y_4.png	4	confidence.png	1	guessing.png	2	respond_yes.png	3	respond_no.png	4	Word 60 of 80	1	Image 1 of 5	1	prayer	36
1	testBlock	centre_mouse	126	45	reveal	im0000063.jpg	N_1.png	1	N_2.png	2	N_3.png	3	N_4.png	4	Y_1.png	1	Y_2.png	2	Y_3.png	3	Y_4.png	4	confidence.png	1	guessing.png	2	respond_yes.png	3	respond_no.png	4	Word 60 of 80	1	Image 1 of 5	1	reveal.png	5
1	testBlock	present_trial	127	40	yes_3	im0000063.jpg	N_1.png	1	N_2.png	2	N_3.png	3	N_4.png	4	Y_1.png	1	Y_2.png	2	Y_3.png	3	Y_4.png	4	confidence.png	1	guessing.png	2	respond_yes.png	3	respond_no.png	4	Word 61 of 80	1	Image 1 of 5	1	baby-hippo	26
1	testBlock	centre_mouse	128	35	reveal	im0000063.jpg	N_1.png	1	N_2.png	2	N_3.png	3	N_4.png	4	Y_1.png	1	Y_2.png	2	Y_3.png	3	Y_4.png	4	confidence.png	1	guessing.png	2	respond_yes.png	3	respond_no.png	4	Word 61 of 80	1	Image 1 of 5	1	reveal.png	5
1	testBlock	present_trial	129	37	yes_2	im0000063.jpg	N_1.png	1	N_2.png	2	N_3.png	3	N_4.png	4	Y_1.png	1	Y_2.png	2	Y_3.png	3	Y_4.png	4	confidence.png	1	guessing.png	2	respond_yes.png	3	respond_no.png	4	Word 62 of 80	1	Image 1 of 5	1	two	4
1	testBlock	centre_mouse	130	23	reveal	im0000063.jpg	N_1.png	1	N_2.png	2	N_3.png	3	N_4.png	4	Y_1.png	1	Y_2.png	2	Y_3.png	3	Y_4.png	4	confidence.png	1	guessing.png	2	respond_yes.png	3	respond_no.png	4	Word 62 of 80	1	Image 1 of 5	1	reveal.png	5
1	testBlock	present_trial	131	43	no_1	im0000063.jpg	N_1.png	1	N_2.png	2	N_3.png	3	N_4.png	4	Y_1.png	1	Y_2.png	2	Y_3.png	3	Y_4.png	4	confidence.png	1	guessing.png	2	respond_yes.png	3	respond_no.png	4	Word 63 of 80	1	Image 1 of 5	1	pair	36
1	testBlock	centre_mouse	132	40	reveal	im0000063.jpg	N_1.png	1	N_2.png	2	N_3.png	3	N_4.png	4	Y_1.png	1	Y_2.png	2	Y_3.png	3	Y_4.png	4	confidence.png	1	guessing.png	2	respond_yes.png	3	respond_no.png	4	Word 63 of 80	1	Image 1 of 5	1	reveal.png	5
1	testBlock	present_trial	133	44	no_1	im0000063.jpg	N_1.png	1	N_2.png	2	N_3.png	3	N_4.png	4	Y_1.png	1	Y_2.png	2	Y_3.png	3	Y_4.png	4	confidence.png	1	guessing.png	2	respond_yes.png	3	respond_no.png	4	Word 64 of 80	1	Image 1 of 5	1	rhino	6
1	testBlock	centre_mouse	134	39	reveal	im0000063.jpg	N_1.png	1	N_2.png	2	N_3.png	3	N_4.png	4	Y_1.png	1	Y_2.png	2	Y_3.png	3	Y_4.png	4	confidence.png	1	guessing.png	2	respond_yes.png	3	respond_no.png	4	Word 64 of 80	1	Image 1 of 5	1	reveal.png	5
1	testBlock	absent_trial	135	29	yes_1	im0000063.jpg	N_1.png	1	N_2.png	2	N_3.png	3	N_4.png	4	Y_1.png	1	Y_2.png	2	Y_3.png	3	Y_4.png	4	confidence.png	1	guessing.png	2	respond_yes.png	3	respond_no.png	4	Word 65 of 80	1	Image 1 of 5	1	confidence	15
1	testBlock	centre_mouse	136	61	reveal	im0000063.jpg	N_1.png	1	N_2.png	2	N_3.png	3	N_4.png	4	Y_1.png	1	Y_2.png	2	Y_3.png	3	Y_4.png	4	confidence.png	1	guessing.png	2	respond_yes.png	3	respond_no.png	4	Word 65 of 80	1	Image 1 of 5	1	reveal.png	5
1	testBlock	present_trial	137	30	yes_2	im0000063.jpg	N_1.png	1	N_2.png	2	N_3.png	3	N_4.png	4	Y_1.png	1	Y_2.png	2	Y_3.png	3	Y_4.png	4	confidence.png	1	guessing.png	2	respond_yes.png	3	respond_no.png	4	Word 66 of 80	1	Image 1 of 5	1	water	1
1	testBlock	centre_mouse	138	35	reveal	im0000063.jpg	N_1.png	1	N_2.png	2	N_3.png	3	N_4.png	4	Y_1.png	1	Y_2.png	2	Y_3.png	3	Y_4.png	4	confidence.png	1	guessing.png	2	respond_yes.png	3	respond_no.png	4	Word 66 of 80	1	Image 1 of 5	1	reveal.png	5
1	testBlock	absent_trial	139	66	no_3	im0000063.jpg	N_1.png	1	N_2.png	2	N_3.png	3	N_4.png	4	Y_1.png	1	Y_2.png	2	Y_3.png	3	Y_4.png	4	confidence.png	1	guessing.png	2	respond_yes.png	3	respond_no.png	4	Word 67 of 80	1	Image 1 of 5	1	perfect	7
1	testBlock	centre_mouse	140	49	reveal	im0000063.jpg	N_1.png	1	N_2.png	2	N_3.png	3	N_4.png	4	Y_1.png	1	Y_2.png	2	Y_3.png	3	Y_4.png	4	confidence.png	1	guessing.png	2	respond_yes.png	3	respond_no.png	4	Word 67 of 80	1	Image 1 of 5	1	reveal.png	5
1	testBlock	absent_trial	141	40	no_3	im0000063.jpg	N_1.png	1	N_2.png	2	N_3.png	3	N_4.png	4	Y_1.png	1	Y_2.png	2	Y_3.png	3	Y_4.png	4	confidence.png	1	guessing.png	2	respond_yes.png	3	respond_no.png	4	Word 68 of 80	1	Image 1 of 5	1	river	3
1	testBlock	centre_mouse	142	54	reveal	im0000063.jpg	N_1.png	1	N_2.png	2	N_3.png	3	N_4.png	4	Y_1.png	1	Y_2.png	2	Y_3.png	3	Y_4.png	4	confidence.png	1	guessing.png	2	respond_yes.png	3	respond_no.png	4	Word 68 of 80	1	Image 1 of 5	1	reveal.png	5
1	testBlock	absent_trial	143	33	no_2	im0000063.jpg	N_1.png	1	N_2.png	2	N_3.png	3	N_4.png	4	Y_1.png	1	Y_2.png	2	Y_3.png	3	Y_4.png	4	confidence.png	1	guessing.png	2	respond_yes.png	3	respond_no.png	4	Word 69 of 80	1	Image 1 of 5	1	sound	14
1	testBlock	centre_mouse	144	63	reveal	im0000063.jpg	N_1.png	1	N_2.png	2	N_3.png	3	N_4.png	4	Y_1.png	1	Y_2.png	2	Y_3.png	3	Y_4.png	4	confidence.png	1	guessing.png	2	respond_yes.png	3	respond_no.png	4	Word 69 of 80	1	Image 1 of 5	1	reveal.png	5
1	testBlock	present_trial	145	36	yes_4	im0000063.jpg	N_1.png	1	N_2.png	2	N_3.png	3	N_4.png	4	Y_1.png	1	Y_2.png	2	Y_3.png	3	Y_4.png	4	confidence.png	1	guessing.png	2	respond_yes.png	3	respond_no.png	4	Word 70 of 80	1	Image 1 of 5	1	mom	13
1	testBlock	centre_mouse	146	36	reveal	im0000063.jpg	N_1.png	1	N_2.png	2	N_3.png	3	N_4.png	4	Y_1.png	1	Y_2.png	2	Y_3.png	3	Y_4.png	4	confidence.png	1	guessing.png	2	respond_yes.png	3	respond_no.png	4	Word 70 of 80	1	Image 1 of 5	1	reveal.png	5
1	testBlock	present_trial	147	35	yes_4	im0000063.jpg	N_1.png	1	N_2.png	2	N_3.png	3	N_4.png	4	Y_1.png	1	Y_2.png	2	Y_3.png	3	Y_4.png	4	confidence.png	1	guessing.png	2	respond_yes.png	3	respond_no.png	4	Word 71 of 80	1	Image 1 of 5	1	hippopotamus	12
1	testBlock	centre_mouse	148	49	reveal	im0000063.jpg	N_1.png	1	N_2.png	2	N_3.png	3	N_4.png	4	Y_1.png	1	Y_2.png	2	Y_3.png	3	Y_4.png	4	confidence.png	1	guessing.png	2	respond_yes.png	3	respond_no.png	4	Word 71 of 80	1	Image 1 of 5	1	reveal.png	5
1	testBlock	present_trial	149	56	yes_4	im0000063.jpg	N_1.png	1	N_2.png	2	N_3.png	3	N_4.png	4	Y_1.png	1	Y_2.png	2	Y_3.png	3	Y_4.png	4	confidence.png	1	guessing.png	2	respond_yes.png	3	respond_no.png	4	Word 72 of 80	1	Image 1 of 5	1	family	8
1	testBlock	centre_mouse	150	17	reveal	im0000063.jpg	N_1.png	1	N_2.png	2	N_3.png	3	N_4.png	4	Y_1.png	1	Y_2.png	2	Y_3.png	3	Y_4.png	4	confidence.png	1	guessing.png	2	respond_yes.png	3	respond_no.png	4	Word 72 of 80	1	Image 1 of 5	1	reveal.png	5
1	testBlock	absent_trial	151	25	no_3	im0000063.jpg	N_1.png	1	N_2.png	2	N_3.png	3	N_4.png	4	Y_1.png	1	Y_2.png	2	Y_3.png	3	Y_4.png	4	confidence.png	1	guessing.png	2	respond_yes.png	3	respond_no.png	4	Word 73 of 80	1	Image 1 of 5	1	public-place	29
1	testBlock	centre_mouse	152	47	reveal	im0000063.jpg	N_1.png	1	N_2.png	2	N_3.png	3	N_4.png	4	Y_1.png	1	Y_2.png	2	Y_3.png	3	Y_4.png	4	confidence.png	1	guessing.png	2	respond_yes.png	3	respond_no.png	4	Word 73 of 80	1	Image 1 of 5	1	reveal.png	5
1	testBlock	present_trial	153	34	yes_3	im0000063.jpg	N_1.png	1	N_2.png	2	N_3.png	3	N_4.png	4	Y_1.png	1	Y_2.png	2	Y_3.png	3	Y_4.png	4	confidence.png	1	guessing.png	2	respond_yes.png	3	respond_no.png	4	Word 74 of 80	1	Image 1 of 5	1	weed	23
1	testBlock	centre_mouse	154	30	reveal	im0000063.jpg	N_1.png	1	N_2.png	2	N_3.png	3	N_4.png	4	Y_1.png	1	Y_2.png	2	Y_3.png	3	Y_4.png	4	confidence.png	1	guessing.png	2	respond_yes.png	3	respond_no.png	4	Word 74 of 80	1	Image 1 of 5	1	reveal.png	5
1	testBlock	present_trial	155	32	no_1	im0000063.jpg	N_1.png	1	N_2.png	2	N_3.png	3	N_4.png	4	Y_1.png	1	Y_2.png	2	Y_3.png	3	Y_4.png	4	confidence.png	1	guessing.png	2	respond_yes.png	3	respond_no.png	4	Word 75 of 80	1	Image 1 of 5	1	adorable	38
1	testBlock	centre_mouse	156	27	reveal	im0000063.jpg	N_1.png	1	N_2.png	2	N_3.png	3	N_4.png	4	Y_1.png	1	Y_2.png	2	Y_3.png	3	Y_4.png	4	confidence.png	1	guessing.png	2	respond_yes.png	3	respond_no.png	4	Word 75 of 80	1	Image 1 of 5	1	reveal.png	5
1	testBlock	absent_trial	157	42	no_3	im0000063.jpg	N_1.png	1	N_2.png	2	N_3.png	3	N_4.png	4	Y_1.png	1	Y_2.png	2	Y_3.png	3	Y_4.png	4	confidence.png	1	guessing.png	2	respond_yes.png	3	respond_no.png	4	Word 76 of 80	1	Image 1 of 5	1	clothe	10
1	testBlock	centre_mouse	158	45	reveal	im0000063.jpg	N_1.png	1	N_2.png	2	N_3.png	3	N_4.png	4	Y_1.png	1	Y_2.png	2	Y_3.png	3	Y_4.png	4	confidence.png	1	guessing.png	2	respond_yes.png	3	respond_no.png	4	Word 76 of 80	1	Image 1 of 5	1	reveal.png	5
1	testBlock	present_trial	159	47	no_2	im0000063.jpg	N_1.png	1	N_2.png	2	N_3.png	3	N_4.png	4	Y_1.png	1	Y_2.png	2	Y_3.png	3	Y_4.png	4	confidence.png	1	guessing.png	2	respond_yes.png	3	respond_no.png	4	Word 77 of 80	1	Image 1 of 5	1	cute	11
1	testBlock	centre_mouse	160	34	reveal	im0000063.jpg	N_1.png	1	N_2.png	2	N_3.png	3	N_4.png	4	Y_1.png	1	Y_2.png	2	Y_3.png	3	Y_4.png	4	confidence.png	1	guessing.png	2	respond_yes.png	3	respond_no.png	4	Word 77 of 80	1	Image 1 of 5	1	reveal.png	5
1	testBlock	present_trial	161	52	yes_3	im0000063.jpg	N_1.png	1	N_2.png	2	N_3.png	3	N_4.png	4	Y_1.png	1	Y_2.png	2	Y_3.png	3	Y_4.png	4	confidence.png	1	guessing.png	2	respond_yes.png	3	respond_no.png	4	Word 78 of 80	1	Image 1 of 5	1	fee	29
1	testBlock	centre_mouse	162	52	reveal	im0000063.jpg	N_1.png	1	N_2.png	2	N_3.png	3	N_4.png	4	Y_1.png	1	Y_2.png	2	Y_3.png	3	Y_4.png	4	confidence.png	1	guessing.png	2	respond_yes.png	3	respond_no.png	4	Word 78 of 80	1	Image 1 of 5	1	reveal.png	5
1	testBlock	absent_trial	163	37	no_4	im0000063.jpg	N_1.png	1	N_2.png	2	N_3.png	3	N_4.png	4	Y_1.png	1	Y_2.png	2	Y_3.png	3	Y_4.png	4	confidence.png	1	guessing.png	2	respond_yes.png	3	respond_no.png	4	Word 79 of 80	1	Image 1 of 5	1	coastline	17
1	testBlock	centre_mouse	164	21	reveal	im0000063.jpg	N_1.png	1	N_2.png	2	N_3.png	3	N_4.png	4	Y_1.png	1	Y_2.png	2	Y_3.png	3	Y_4.png	4	confidence.png	1	guessing.png	2	respond_yes.png	3	respond_no.png	4	Word 79 of 80	1	Image 1 of 5	1	reveal.png	5
1	testBlock	absent_trial	165	23	no_4	im0000063.jpg	N_1.png	1	N_2.png	2	N_3.png	3	N_4.png	4	Y_1.png	1	Y_2.png	2	Y_3.png	3	Y_4.png	4	confidence.png	1	guessing.png	2	respond_yes.png	3	respond_no.png	4	Word 80 of 80	1	Image 1 of 5	1	colorful	26
1	testBlock	centre_mouse	166	30	reveal	im0000063.jpg	N_1.png	1	N_2.png	2	N_3.png	3	N_4.png	4	Y_1.png	1	Y_2.png	2	Y_3.png	3	Y_4.png	4	confidence.png	1	guessing.png	2	respond_yes.png	3	respond_no.png	4	Word 80 of 80	1	Image 1 of 5	1	reveal.png	5
1	testBlock	test	1	1	0	im0000063.jpg	+	1	im0000041.jpg	1	mask3.jpg	3	mask1.jpg	1	mask1.jpg	1	mask4.jpg	4	mask5.jpg	5	0	0	0	0	0	0	0	0	0	0	0	0	0	0	0	0
1	testBlock	centre_mouse	2	45	reveal	im0000063.jpg	N_1.png	1	N_2.png	2	N_3.png	3	N_4.png	4	Y_1.png	1	Y_2.png	2	Y_3.png	3	Y_4.png	4	confidence.png	1	guessing.png	2	respond_yes.png	3	respond_no.png	4	Word 0 of 80	1	Image 2 of 5	1	reveal.png	5
1	testBlock	absent_trial	3	43	no_4	im0000041.jpg	N_1.png	1	N_2.png	2	N_3.png	3	N_4.png	4	Y_1.png	1	Y_2.png	2	Y_3.png	3	Y_4.png	4	confidence.png	1	guessing.png	2	respond_yes.png	3	respond_no.png	4	Word 1 of 80	1	Image 2 of 5	1	grind	35
1	testBlock	centre_mouse	4	35	reveal	im0000041.jpg	N_1.png	1	N_2.png	2	N_3.png	3	N_4.png	4	Y_1.png	1	Y_2.png	2	Y_3.png	3	Y_4.png	4	confidence.png	1	guessing.png	2	respond_yes.png	3	respond_no.png	4	Word 1 of 80	1	Image 2 of 5	1	reveal.png	5
1	testBlock	present_trial	5	45	no_1	im0000041.jpg	N_1.png	1	N_2.png	2	N_3.png	3	N_4.png	4	Y_1.png	1	Y_2.png	2	Y_3.png	3	Y_4.png	4	confidence.png	1	guessing.png	2	respond_yes.png	3	respond_no.png	4	Word 2 of 80	1	Image 2 of 5	1	run	13
1	testBlock	centre_mouse	6	64	reveal	im0000041.jpg	N_1.png	1	N_2.png	2	N_3.png	3	N_4.png	4	Y_1.png	1	Y_2.png	2	Y_3.png	3	Y_4.png	4	confidence.png	1	guessing.png	2	respond_yes.png	3	respond_no.png	4	Word 2 of 80	1	Image 2 of 5	1	reveal.png	5
1	testBlock	present_trial	7	47	yes_3	im0000041.jpg	N_1.png	1	N_2.png	2	N_3.png	3	N_4.png	4	Y_1.png	1	Y_2.png	2	Y_3.png	3	Y_4.png	4	confidence.png	1	guessing.png	2	respond_yes.png	3	respond_no.png	4	Word 3 of 80	1	Image 2 of 5	1	farm	4
1	testBlock	centre_mouse	8	41	reveal	im0000041.jpg	N_1.png	1	N_2.png	2	N_3.png	3	N_4.png	4	Y_1.png	1	Y_2.png	2	Y_3.png	3	Y_4.png	4	confidence.png	1	guessing.png	2	respond_yes.png	3	respond_no.png	4	Word 3 of 80	1	Image 2 of 5	1	reveal.png	5
1	testBlock	absent_trial	9	43	yes_3	im0000041.jpg	N_1.png	1	N_2.png	2	N_3.png	3	N_4.png	4	Y_1.png	1	Y_2.png	2	Y_3.png	3	Y_4.png	4	confidence.png	1	guessing.png	2	respond_yes.png	3	respond_no.png	4	Word 4 of 80	1	Image 2 of 5	1	sauce	38
1	testBlock	centre_mouse	10	46	reveal	im0000041.jpg	N_1.png	1	N_2.png	2	N_3.png	3	N_4.png	4	Y_1.png	1	Y_2.png	2	Y_3.png	3	Y_4.png	4	confidence.png	1	guessing.png	2	respond_yes.png	3	respond_no.png	4	Word 4 of 80	1	Image 2 of 5	1	reveal.png	5
1	testBlock	present_trial	11	41	yes_1	im0000041.jpg	N_1.png	1	N_2.png	2	N_3.png	3	N_4.png	4	Y_1.png	1	Y_2.png	2	Y_3.png	3	Y_4.png	4	confidence.png	1	guessing.png	2	respond_yes.png	3	respond_no.png	4	Word 5 of 80	1	Image 2 of 5	1	moose	18
1	testBlock	centre_mouse	12	47	reveal	im0000041.jpg	N_1.png	1	N_2.png	2	N_3.png	3	N_4.png	4	Y_1.png	1	Y_2.png	2	Y_3.png	3	Y_4.png	4	confidence.png	1	guessing.png	2	respond_yes.png	3	respond_no.png	4	Word 5 of 80	1	Image 2 of 5	1	reveal.png	5
1	testBlock	present_trial	13	37	no_4	im0000041.jpg	N_1.png	1	N_2.png	2	N_3.png	3	N_4.png	4	Y_1.png	1	Y_2.png	2	Y_3.png	3	Y_4.png	4	confidence.png	1	guessing.png	2	respond_yes.png	3	respond_no.png	4	Word 6 of 80	1	Image 2 of 5	1	man	36
1	testBlock	centre_mouse	14	41	reveal	im0000041.jpg	N_1.png	1	N_2.png	2	N_3.png	3	N_4.png	4	Y_1.png	1	Y_2.png	2	Y_3.png	3	Y_4.png	4	confidence.png	1	guessing.png	2	respond_yes.png	3	respond_no.png	4	Word 6 of 80	1	Image 2 of 5	1	reveal.png	5
1	testBlock	present_trial	15	52	yes_3	im0000041.jpg	N_1.png	1	N_2.png	2	N_3.png	3	N_4.png	4	Y_1.png	1	Y_2.png	2	Y_3.png	3	Y_4.png	4	confidence.png	1	guessing.png	2	respond_yes.png	3	respond_no.png	4	Word 7 of 80	1	Image 2 of 5	1	stall	37
1	testBlock	centre_mouse	16	42	reveal	im0000041.jpg	N_1.png	1	N_2.png	2	N_3.png	3	N_4.png	4	Y_1.png	1	Y_2.png	2	Y_3.png	3	Y_4.png	4	confidence.png	1	guessing.png	2	respond_yes.png	3	respond_no.png	4	Word 7 of 80	1	Image 2 of 5	1	reveal.png	5
1	testBlock	absent_trial	17	39	yes_1	im0000041.jpg	N_1.png	1	N_2.png	2	N_3.png	3	N_4.png	4	Y_1.png	1	Y_2.png	2	Y_3.png	3	Y_4.png	4	confidence.png	1	guessing.png	2	respond_yes.png	3	respond_no.png	4	Word 8 of 80	1	Image 2 of 5	1	animal	11
1	testBlock	centre_mouse	18	54	reveal	im0000041.jpg	N_1.png	1	N_2.png	2	N_3.png	3	N_4.png	4	Y_1.png	1	Y_2.png	2	Y_3.png	3	Y_4.png	4	confidence.png	1	guessing.png	2	respond_yes.png	3	respond_no.png	4	Word 8 of 80	1	Image 2 of 5	1	reveal.png	5
1	testBlock	present_trial	19	43	yes_3	im0000041.jpg	N_1.png	1	N_2.png	2	N_3.png	3	N_4.png	4	Y_1.png	1	Y_2.png	2	Y_3.png	3	Y_4.png	4	confidence.png	1	guessing.png	2	respond_yes.png	3	respond_no.png	4	Word 9 of 80	1	Image 2 of 5	1	boy	38
1	testBlock	centre_mouse	20	51	reveal	im0000041.jpg	N_1.png	1	N_2.png	2	N_3.png	3	N_4.png	4	Y_1.png	1	Y_2.png	2	Y_3.png	3	Y_4.png	4	confidence.png	1	guessing.png	2	respond_yes.png	3	respond_no.png	4	Word 9 of 80	1	Image 2 of 5	1	reveal.png	5
1	testBlock	present_trial	21	41	yes_4	im0000041.jpg	N_1.png	1	N_2.png	2	N_3.png	3	N_4.png	4	Y_1.png	1	Y_2.png	2	Y_3.png	3	Y_4.png	4	confidence.png	1	guessing.png	2	respond_yes.png	3	respond_no.png	4	Word 10 of 80	1	Image 2 of 5	1	peaceful	19
1	testBlock	centre_mouse	22	41	reveal	im0000041.jpg	N_1.png	1	N_2.png	2	N_3.png	3	N_4.png	4	Y_1.png	1	Y_2.png	2	Y_3.png	3	Y_4.png	4	confidence.png	1	guessing.png	2	respond_yes.png	3	respond_no.png	4	Word 10 of 80	1	Image 2 of 5	1	reveal.png	5
1	testBlock	absent_trial	23	45	no_4	im0000041.jpg	N_1.png	1	N_2.png	2	N_3.png	3	N_4.png	4	Y_1.png	1	Y_2.png	2	Y_3.png	3	Y_4.png	4	confidence.png	1	guessing.png	2	respond_yes.png	3	respond_no.png	4	Word 11 of 80	1	Image 2 of 5	1	sparrow	14
1	testBlock	centre_mouse	24	39	reveal	im0000041.jpg	N_1.png	1	N_2.png	2	N_3.png	3	N_4.png	4	Y_1.png	1	Y_2.png	2	Y_3.png	3	Y_4.png	4	confidence.png	1	guessing.png	2	respond_yes.png	3	respond_no.png	4	Word 11 of 80	1	Image 2 of 5	1	reveal.png	5
1	testBlock	absent_trial	25	49	no_4	im0000041.jpg	N_1.png	1	N_2.png	2	N_3.png	3	N_4.png	4	Y_1.png	1	Y_2.png	2	Y_3.png	3	Y_4.png	4	confidence.png	1	guessing.png	2	respond_yes.png	3	respond_no.png	4	Word 12 of 80	1	Image 2 of 5	1	platter	16
1	testBlock	centre_mouse	26	66	reveal	im0000041.jpg	N_1.png	1	N_2.png	2	N_3.png	3	N_4.png	4	Y_1.png	1	Y_2.png	2	Y_3.png	3	Y_4.png	4	confidence.png	1	guessing.png	2	respond_yes.png	3	respond_no.png	4	Word 12 of 80	1	Image 2 of 5	1	reveal.png	5
1	testBlock	absent_trial	27	29	no_4	im0000041.jpg	N_1.png	1	N_2.png	2	N_3.png	3	N_4.png	4	Y_1.png	1	Y_2.png	2	Y_3.png	3	Y_4.png	4	confidence.png	1	guessing.png	2	respond_yes.png	3	respond_no.png	4	Word 13 of 80	1	Image 2 of 5	1	castle	15
1	testBlock	centre_mouse	28	45	reveal	im0000041.jpg	N_1.png	1	N_2.png	2	N_3.png	3	N_4.png	4	Y_1.png	1	Y_2.png	2	Y_3.png	3	Y_4.png	4	confidence.png	1	guessing.png	2	respond_yes.png	3	respond_no.png	4	Word 13 of 80	1	Image 2 of 5	1	reveal.png	5
1	testBlock	absent_trial	29	49	no_3	im0000041.jpg	N_1.png	1	N_2.png	2	N_3.png	3	N_4.png	4	Y_1.png	1	Y_2.png	2	Y_3.png	3	Y_4.png	4	confidence.png	1	guessing.png	2	respond_yes.png	3	respond_no.png	4	Word 14 of 80	1	Image 2 of 5	1	fume	33
1	testBlock	centre_mouse	30	43	reveal	im0000041.jpg	N_1.png	1	N_2.png	2	N_3.png	3	N_4.png	4	Y_1.png	1	Y_2.png	2	Y_3.png	3	Y_4.png	4	confidence.png	1	guessing.png	2	respond_yes.png	3	respond_no.png	4	Word 14 of 80	1	Image 2 of 5	1	reveal.png	5
1	testBlock	present_trial	31	36	yes_3	im0000041.jpg	N_1.png	1	N_2.png	2	N_3.png	3	N_4.png	4	Y_1.png	1	Y_2.png	2	Y_3.png	3	Y_4.png	4	confidence.png	1	guessing.png	2	respond_yes.png	3	respond_no.png	4	Word 15 of 80	1	Image 2 of 5	1	horse	5
1	testBlock	centre_mouse	32	47	reveal	im0000041.jpg	N_1.png	1	N_2.png	2	N_3.png	3	N_4.png	4	Y_1.png	1	Y_2.png	2	Y_3.png	3	Y_4.png	4	confidence.png	1	guessing.png	2	respond_yes.png	3	respond_no.png	4	Word 15 of 80	1	Image 2 of 5	1	reveal.png	5
1	testBlock	absent_trial	33	30	no_3	im0000041.jpg	N_1.png	1	N_2.png	2	N_3.png	3	N_4.png	4	Y_1.png	1	Y_2.png	2	Y_3.png	3	Y_4.png	4	confidence.png	1	guessing.png	2	respond_yes.png	3	respond_no.png	4	Word 16 of 80	1	Image 2 of 5	1	stage	37
1	testBlock	centre_mouse	34	77	reveal	im0000041.jpg	N_1.png	1	N_2.png	2	N_3.png	3	N_4.png	4	Y_1.png	1	Y_2.png	2	Y_3.png	3	Y_4.png	4	confidence.png	1	guessing.png	2	respond_yes.png	3	respond_no.png	4	Word 16 of 80	1	Image 2 of 5	1	reveal.png	5
1	testBlock	absent_trial	35	59	no_4	im0000041.jpg	N_1.png	1	N_2.png	2	N_3.png	3	N_4.png	4	Y_1.png	1	Y_2.png	2	Y_3.png	3	Y_4.png	4	confidence.png	1	guessing.png	2	respond_yes.png	3	respond_no.png	4	Word 17 of 80	1	Image 2 of 5	1	calm	36
1	testBlock	centre_mouse	36	40	reveal	im0000041.jpg	N_1.png	1	N_2.png	2	N_3.png	3	N_4.png	4	Y_1.png	1	Y_2.png	2	Y_3.png	3	Y_4.png	4	confidence.png	1	guessing.png	2	respond_yes.png	3	respond_no.png	4	Word 17 of 80	1	Image 2 of 5	1	reveal.png	5
1	testBlock	present_trial	37	41	yes_4	im0000041.jpg	N_1.png	1	N_2.png	2	N_3.png	3	N_4.png	4	Y_1.png	1	Y_2.png	2	Y_3.png	3	Y_4.png	4	confidence.png	1	guessing.png	2	respond_yes.png	3	respond_no.png	4	Word 18 of 80	1	Image 2 of 5	1	white-fence	17
1	testBlock	centre_mouse	38	30	reveal	im0000041.jpg	N_1.png	1	N_2.png	2	N_3.png	3	N_4.png	4	Y_1.png	1	Y_2.png	2	Y_3.png	3	Y_4.png	4	confidence.png	1	guessing.png	2	respond_yes.png	3	respond_no.png	4	Word 18 of 80	1	Image 2 of 5	1	reveal.png	5
1	testBlock	present_trial	39	25	yes_4	im0000041.jpg	N_1.png	1	N_2.png	2	N_3.png	3	N_4.png	4	Y_1.png	1	Y_2.png	2	Y_3.png	3	Y_4.png	4	confidence.png	1	guessing.png	2	respond_yes.png	3	respond_no.png	4	Word 19 of 80	1	Image 2 of 5	1	land	30
1	testBlock	centre_mouse	40	37	reveal	im0000041.jpg	N_1.png	1	N_2.png	2	N_3.png	3	N_4.png	4	Y_1.png	1	Y_2.png	2	Y_3.png	3	Y_4.png	4	confidence.png	1	guessing.png	2	respond_yes.png	3	respond_no.png	4	Word 19 of 80	1	Image 2 of 5	1	reveal.png	5
1	testBlock	absent_trial	41	44	no_3	im0000041.jpg	N_1.png	1	N_2.png	2	N_3.png	3	N_4.png	4	Y_1.png	1	Y_2.png	2	Y_3.png	3	Y_4.png	4	confidence.png	1	guessing.png	2	respond_yes.png	3	respond_no.png	4	Word 20 of 80	1	Image 2 of 5	1	day	4
1	testBlock	centre_mouse	42	40	reveal	im0000041.jpg	N_1.png	1	N_2.png	2	N_3.png	3	N_4.png	4	Y_1.png	1	Y_2.png	2	Y_3.png	3	Y_4.png	4	confidence.png	1	guessing.png	2	respond_yes.png	3	respond_no.png	4	Word 20 of 80	1	Image 2 of 5	1	reveal.png	5
1	testBlock	catch_present_trial	43	37	yes_4	im0000041.jpg	N_1.png	1	N_2.png	2	N_3.png	3	N_4.png	4	Y_1.png	1	Y_2.png	2	Y_3.png	3	Y_4.png	4	confidence.png	1	guessing.png	2	respond_yes.png	3	respond_no.png	4	Word 20 of 80	1	Image 2 of 5	1	PRESS: Yes 3	3
1	testBlock	centre_mouse	44	46	reveal	im0000041.jpg	N_1.png	1	N_2.png	2	N_3.png	3	N_4.png	4	Y_1.png	1	Y_2.png	2	Y_3.png	3	Y_4.png	4	confidence.png	1	guessing.png	2	respond_yes.png	3	respond_no.png	4	Word 20 of 80	1	Image 2 of 5	1	reveal.png	5
1	testBlock	absent_trial	45	57	no_4	im0000041.jpg	N_1.png	1	N_2.png	2	N_3.png	3	N_4.png	4	Y_1.png	1	Y_2.png	2	Y_3.png	3	Y_4.png	4	confidence.png	1	guessing.png	2	respond_yes.png	3	respond_no.png	4	Word 21 of 80	1	Image 2 of 5	1	sky	13
1	testBlock	centre_mouse	46	46	reveal	im0000041.jpg	N_1.png	1	N_2.png	2	N_3.png	3	N_4.png	4	Y_1.png	1	Y_2.png	2	Y_3.png	3	Y_4.png	4	confidence.png	1	guessing.png	2	respond_yes.png	3	respond_no.png	4	Word 21 of 80	1	Image 2 of 5	1	reveal.png	5
1	testBlock	present_trial	47	27	yes_4	im0000041.jpg	N_1.png	1	N_2.png	2	N_3.png	3	N_4.png	4	Y_1.png	1	Y_2.png	2	Y_3.png	3	Y_4.png	4	confidence.png	1	guessing.png	2	respond_yes.png	3	respond_no.png	4	Word 22 of 80	1	Image 2 of 5	1	outside	8
1	testBlock	centre_mouse	48	66	reveal	im0000041.jpg	N_1.png	1	N_2.png	2	N_3.png	3	N_4.png	4	Y_1.png	1	Y_2.png	2	Y_3.png	3	Y_4.png	4	confidence.png	1	guessing.png	2	respond_yes.png	3	respond_no.png	4	Word 22 of 80	1	Image 2 of 5	1	reveal.png	5
1	testBlock	absent_trial	49	32	no_4	im0000041.jpg	N_1.png	1	N_2.png	2	N_3.png	3	N_4.png	4	Y_1.png	1	Y_2.png	2	Y_3.png	3	Y_4.png	4	confidence.png	1	guessing.png	2	respond_yes.png	3	respond_no.png	4	Word 23 of 80	1	Image 2 of 5	1	field	17
1	testBlock	centre_mouse	50	19	reveal	im0000041.jpg	N_1.png	1	N_2.png	2	N_3.png	3	N_4.png	4	Y_1.png	1	Y_2.png	2	Y_3.png	3	Y_4.png	4	confidence.png	1	guessing.png	2	respond_yes.png	3	respond_no.png	4	Word 23 of 80	1	Image 2 of 5	1	reveal.png	5
1	testBlock	absent_trial	51	42	no_3	im0000041.jpg	N_1.png	1	N_2.png	2	N_3.png	3	N_4.png	4	Y_1.png	1	Y_2.png	2	Y_3.png	3	Y_4.png	4	confidence.png	1	guessing.png	2	respond_yes.png	3	respond_no.png	4	Word 24 of 80	1	Image 2 of 5	1	yellow	19
1	testBlock	centre_mouse	52	32	reveal	im0000041.jpg	N_1.png	1	N_2.png	2	N_3.png	3	N_4.png	4	Y_1.png	1	Y_2.png	2	Y_3.png	3	Y_4.png	4	confidence.png	1	guessing.png	2	respond_yes.png	3	respond_no.png	4	Word 24 of 80	1	Image 2 of 5	1	reveal.png	5
1	testBlock	absent_trial	53	41	no_4	im0000041.jpg	N_1.png	1	N_2.png	2	N_3.png	3	N_4.png	4	Y_1.png	1	Y_2.png	2	Y_3.png	3	Y_4.png	4	confidence.png	1	guessing.png	2	respond_yes.png	3	respond_no.png	4	Word 25 of 80	1	Image 2 of 5	1	carriage	26
1	testBlock	centre_mouse	54	42	reveal	im0000041.jpg	N_1.png	1	N_2.png	2	N_3.png	3	N_4.png	4	Y_1.png	1	Y_2.png	2	Y_3.png	3	Y_4.png	4	confidence.png	1	guessing.png	2	respond_yes.png	3	respond_no.png	4	Word 25 of 80	1	Image 2 of 5	1	reveal.png	5
1	testBlock	present_trial	55	50	yes_1	im0000041.jpg	N_1.png	1	N_2.png	2	N_3.png	3	N_4.png	4	Y_1.png	1	Y_2.png	2	Y_3.png	3	Y_4.png	4	confidence.png	1	guessing.png	2	respond_yes.png	3	respond_no.png	4	Word 26 of 80	1	Image 2 of 5	1	grass	2
1	testBlock	centre_mouse	56	45	reveal	im0000041.jpg	N_1.png	1	N_2.png	2	N_3.png	3	N_4.png	4	Y_1.png	1	Y_2.png	2	Y_3.png	3	Y_4.png	4	confidence.png	1	guessing.png	2	respond_yes.png	3	respond_no.png	4	Word 26 of 80	1	Image 2 of 5	1	reveal.png	5
1	testBlock	present_trial	57	46	yes_4	im0000041.jpg	N_1.png	1	N_2.png	2	N_3.png	3	N_4.png	4	Y_1.png	1	Y_2.png	2	Y_3.png	3	Y_4.png	4	confidence.png	1	guessing.png	2	respond_yes.png	3	respond_no.png	4	Word 27 of 80	1	Image 2 of 5	1	corral	28
1	testBlock	centre_mouse	58	36	reveal	im0000041.jpg	N_1.png	1	N_2.png	2	N_3.png	3	N_4.png	4	Y_1.png	1	Y_2.png	2	Y_3.png	3	Y_4.png	4	confidence.png	1	guessing.png	2	respond_yes.png	3	respond_no.png	4	Word 27 of 80	1	Image 2 of 5	1	reveal.png	5
1	testBlock	absent_trial	59	48	no_3	im0000041.jpg	N_1.png	1	N_2.png	2	N_3.png	3	N_4.png	4	Y_1.png	1	Y_2.png	2	Y_3.png	3	Y_4.png	4	confidence.png	1	guessing.png	2	respond_yes.png	3	respond_no.png	4	Word 28 of 80	1	Image 2 of 5	1	smoke	18
1	testBlock	centre_mouse	60	57	reveal	im0000041.jpg	N_1.png	1	N_2.png	2	N_3.png	3	N_4.png	4	Y_1.png	1	Y_2.png	2	Y_3.png	3	Y_4.png	4	confidence.png	1	guessing.png	2	respond_yes.png	3	respond_no.png	4	Word 28 of 80	1	Image 2 of 5	1	reveal.png	5
1	testBlock	absent_trial	61	32	yes_4	im0000041.jpg	N_1.png	1	N_2.png	2	N_3.png	3	N_4.png	4	Y_1.png	1	Y_2.png	2	Y_3.png	3	Y_4.png	4	confidence.png	1	guessing.png	2	respond_yes.png	3	respond_no.png	4	Word 29 of 80	1	Image 2 of 5	1	wall	3
1	testBlock	centre_mouse	62	32	reveal	im0000041.jpg	N_1.png	1	N_2.png	2	N_3.png	3	N_4.png	4	Y_1.png	1	Y_2.png	2	Y_3.png	3	Y_4.png	4	confidence.png	1	guessing.png	2	respond_yes.png	3	respond_no.png	4	Word 29 of 80	1	Image 2 of 5	1	reveal.png	5
1	testBlock	present_trial	63	46	no_2	im0000041.jpg	N_1.png	1	N_2.png	2	N_3.png	3	N_4.png	4	Y_1.png	1	Y_2.png	2	Y_3.png	3	Y_4.png	4	confidence.png	1	guessing.png	2	respond_yes.png	3	respond_no.png	4	Word 30 of 80	1	Image 2 of 5	1	water	9
1	testBlock	centre_mouse	64	58	reveal	im0000041.jpg	N_1.png	1	N_2.png	2	N_3.png	3	N_4.png	4	Y_1.png	1	Y_2.png	2	Y_3.png	3	Y_4.png	4	confidence.png	1	guessing.png	2	respond_yes.png	3	respond_no.png	4	Word 30 of 80	1	Image 2 of 5	1	reveal.png	5
1	testBlock	absent_trial	65	34	no_3	im0000041.jpg	N_1.png	1	N_2.png	2	N_3.png	3	N_4.png	4	Y_1.png	1	Y_2.png	2	Y_3.png	3	Y_4.png	4	confidence.png	1	guessing.png	2	respond_yes.png	3	respond_no.png	4	Word 31 of 80	1	Image 2 of 5	1	large	8
1	testBlock	centre_mouse	66	51	reveal	im0000041.jpg	N_1.png	1	N_2.png	2	N_3.png	3	N_4.png	4	Y_1.png	1	Y_2.png	2	Y_3.png	3	Y_4.png	4	confidence.png	1	guessing.png	2	respond_yes.png	3	respond_no.png	4	Word 31 of 80	1	Image 2 of 5	1	reveal.png	5
1	testBlock	present_trial	67	35	yes_4	im0000041.jpg	N_1.png	1	N_2.png	2	N_3.png	3	N_4.png	4	Y_1.png	1	Y_2.png	2	Y_3.png	3	Y_4.png	4	confidence.png	1	guessing.png	2	respond_yes.png	3	respond_no.png	4	Word 32 of 80	1	Image 2 of 5	1	tree	16
1	testBlock	centre_mouse	68	37	reveal	im0000041.jpg	N_1.png	1	N_2.png	2	N_3.png	3	N_4.png	4	Y_1.png	1	Y_2.png	2	Y_3.png	3	Y_4.png	4	confidence.png	1	guessing.png	2	respond_yes.png	3	respond_no.png	4	Word 32 of 80	1	Image 2 of 5	1	reveal.png	5
1	testBlock	present_trial	69	40	yes_1	im0000041.jpg	N_1.png	1	N_2.png	2	N_3.png	3	N_4.png	4	Y_1.png	1	Y_2.png	2	Y_3.png	3	Y_4.png	4	confidence.png	1	guessing.png	2	respond_yes.png	3	respond_no.png	4	Word 33 of 80	1	Image 2 of 5	1	greenery	40
1	testBlock	centre_mouse	70	45	reveal	im0000041.jpg	N_1.png	1	N_2.png	2	N_3.png	3	N_4.png	4	Y_1.png	1	Y_2.png	2	Y_3.png	3	Y_4.png	4	confidence.png	1	guessing.png	2	respond_yes.png	3	respond_no.png	4	Word 33 of 80	1	Image 2 of 5	1	reveal.png	5
1	testBlock	present_trial	71	42	yes_4	im0000041.jpg	N_1.png	1	N_2.png	2	N_3.png	3	N_4.png	4	Y_1.png	1	Y_2.png	2	Y_3.png	3	Y_4.png	4	confidence.png	1	guessing.png	2	respond_yes.png	3	respond_no.png	4	Word 34 of 80	1	Image 2 of 5	1	pretty	24
1	testBlock	centre_mouse	72	50	reveal	im0000041.jpg	N_1.png	1	N_2.png	2	N_3.png	3	N_4.png	4	Y_1.png	1	Y_2.png	2	Y_3.png	3	Y_4.png	4	confidence.png	1	guessing.png	2	respond_yes.png	3	respond_no.png	4	Word 34 of 80	1	Image 2 of 5	1	reveal.png	5
1	testBlock	present_trial	73	32	no_1	im0000041.jpg	N_1.png	1	N_2.png	2	N_3.png	3	N_4.png	4	Y_1.png	1	Y_2.png	2	Y_3.png	3	Y_4.png	4	confidence.png	1	guessing.png	2	respond_yes.png	3	respond_no.png	4	Word 35 of 80	1	Image 2 of 5	1	food	31
1	testBlock	centre_mouse	74	73	reveal	im0000041.jpg	N_1.png	1	N_2.png	2	N_3.png	3	N_4.png	4	Y_1.png	1	Y_2.png	2	Y_3.png	3	Y_4.png	4	confidence.png	1	guessing.png	2	respond_yes.png	3	respond_no.png	4	Word 35 of 80	1	Image 2 of 5	1	reveal.png	5
1	testBlock	absent_trial	75	27	no_4	im0000041.jpg	N_1.png	1	N_2.png	2	N_3.png	3	N_4.png	4	Y_1.png	1	Y_2.png	2	Y_3.png	3	Y_4.png	4	confidence.png	1	guessing.png	2	respond_yes.png	3	respond_no.png	4	Word 36 of 80	1	Image 2 of 5	1	line	6
1	testBlock	centre_mouse	76	26	reveal	im0000041.jpg	N_1.png	1	N_2.png	2	N_3.png	3	N_4.png	4	Y_1.png	1	Y_2.png	2	Y_3.png	3	Y_4.png	4	confidence.png	1	guessing.png	2	respond_yes.png	3	respond_no.png	4	Word 36 of 80	1	Image 2 of 5	1	reveal.png	5
1	testBlock	absent_trial	77	48	no_4	im0000041.jpg	N_1.png	1	N_2.png	2	N_3.png	3	N_4.png	4	Y_1.png	1	Y_2.png	2	Y_3.png	3	Y_4.png	4	confidence.png	1	guessing.png	2	respond_yes.png	3	respond_no.png	4	Word 37 of 80	1	Image 2 of 5	1	street	22
1	testBlock	centre_mouse	78	44	reveal	im0000041.jpg	N_1.png	1	N_2.png	2	N_3.png	3	N_4.png	4	Y_1.png	1	Y_2.png	2	Y_3.png	3	Y_4.png	4	confidence.png	1	guessing.png	2	respond_yes.png	3	respond_no.png	4	Word 37 of 80	1	Image 2 of 5	1	reveal.png	5
1	testBlock	absent_trial	79	44	no_2	im0000041.jpg	N_1.png	1	N_2.png	2	N_3.png	3	N_4.png	4	Y_1.png	1	Y_2.png	2	Y_3.png	3	Y_4.png	4	confidence.png	1	guessing.png	2	respond_yes.png	3	respond_no.png	4	Word 38 of 80	1	Image 2 of 5	1	happy	34
1	testBlock	centre_mouse	80	40	reveal	im0000041.jpg	N_1.png	1	N_2.png	2	N_3.png	3	N_4.png	4	Y_1.png	1	Y_2.png	2	Y_3.png	3	Y_4.png	4	confidence.png	1	guessing.png	2	respond_yes.png	3	respond_no.png	4	Word 38 of 80	1	Image 2 of 5	1	reveal.png	5
1	testBlock	present_trial	81	50	no_1	im0000041.jpg	N_1.png	1	N_2.png	2	N_3.png	3	N_4.png	4	Y_1.png	1	Y_2.png	2	Y_3.png	3	Y_4.png	4	confidence.png	1	guessing.png	2	respond_yes.png	3	respond_no.png	4	Word 39 of 80	1	Image 2 of 5	1	little-girl-riding	21
1	testBlock	centre_mouse	82	42	reveal	im0000041.jpg	N_1.png	1	N_2.png	2	N_3.png	3	N_4.png	4	Y_1.png	1	Y_2.png	2	Y_3.png	3	Y_4.png	4	confidence.png	1	guessing.png	2	respond_yes.png	3	respond_no.png	4	Word 39 of 80	1	Image 2 of 5	1	reveal.png	5
1	testBlock	present_trial	83	52	yes_3	im0000041.jpg	N_1.png	1	N_2.png	2	N_3.png	3	N_4.png	4	Y_1.png	1	Y_2.png	2	Y_3.png	3	Y_4.png	4	confidence.png	1	guessing.png	2	respond_yes.png	3	respond_no.png	4	Word 40 of 80	1	Image 2 of 5	1	sunny	7
1	testBlock	centre_mouse	84	25	reveal	im0000041.jpg	N_1.png	1	N_2.png	2	N_3.png	3	N_4.png	4	Y_1.png	1	Y_2.png	2	Y_3.png	3	Y_4.png	4	confidence.png	1	guessing.png	2	respond_yes.png	3	respond_no.png	4	Word 40 of 80	1	Image 2 of 5	1	reveal.png	5
1	testBlock	present_trial	85	53	yes_4	im0000041.jpg	N_1.png	1	N_2.png	2	N_3.png	3	N_4.png	4	Y_1.png	1	Y_2.png	2	Y_3.png	3	Y_4.png	4	confidence.png	1	guessing.png	2	respond_yes.png	3	respond_no.png	4	Word 41 of 80	1	Image 2 of 5	1	paddock	15
1	testBlock	centre_mouse	86	44	reveal	im0000041.jpg	N_1.png	1	N_2.png	2	N_3.png	3	N_4.png	4	Y_1.png	1	Y_2.png	2	Y_3.png	3	Y_4.png	4	confidence.png	1	guessing.png	2	respond_yes.png	3	respond_no.png	4	Word 41 of 80	1	Image 2 of 5	1	reveal.png	5
1	testBlock	present_trial	87	44	no_1	im0000041.jpg	N_1.png	1	N_2.png	2	N_3.png	3	N_4.png	4	Y_1.png	1	Y_2.png	2	Y_3.png	3	Y_4.png	4	confidence.png	1	guessing.png	2	respond_yes.png	3	respond_no.png	4	Word 42 of 80	1	Image 2 of 5	1	field	25
1	testBlock	centre_mouse	88	36	reveal	im0000041.jpg	N_1.png	1	N_2.png	2	N_3.png	3	N_4.png	4	Y_1.png	1	Y_2.png	2	Y_3.png	3	Y_4.png	4	confidence.png	1	guessing.png	2	respond_yes.png	3	respond_no.png	4	Word 42 of 80	1	Image 2 of 5	1	reveal.png	5
1	testBlock	absent_trial	89	38	no_4	im0000041.jpg	N_1.png	1	N_2.png	2	N_3.png	3	N_4.png	4	Y_1.png	1	Y_2.png	2	Y_3.png	3	Y_4.png	4	confidence.png	1	guessing.png	2	respond_yes.png	3	respond_no.png	4	Word 43 of 80	1	Image 2 of 5	1	child	7
1	testBlock	centre_mouse	90	43	reveal	im0000041.jpg	N_1.png	1	N_2.png	2	N_3.png	3	N_4.png	4	Y_1.png	1	Y_2.png	2	Y_3.png	3	Y_4.png	4	confidence.png	1	guessing.png	2	respond_yes.png	3	respond_no.png	4	Word 43 of 80	1	Image 2 of 5	1	reveal.png	5
1	testBlock	absent_trial	91	49	yes_2	im0000041.jpg	N_1.png	1	N_2.png	2	N_3.png	3	N_4.png	4	Y_1.png	1	Y_2.png	2	Y_3.png	3	Y_4.png	4	confidence.png	1	guessing.png	2	respond_yes.png	3	respond_no.png	4	Word 44 of 80	1	Image 2 of 5	1	woman	31
1	testBlock	centre_mouse	92	40	reveal	im0000041.jpg	N_1.png	1	N_2.png	2	N_3.png	3	N_4.png	4	Y_1.png	1	Y_2.png	2	Y_3.png	3	Y_4.png	4	confidence.png	1	guessing.png	2	respond_yes.png	3	respond_no.png	4	Word 44 of 80	1	Image 2 of 5	1	reveal.png	5
1	testBlock	absent_trial	93	42	no_4	im0000041.jpg	N_1.png	1	N_2.png	2	N_3.png	3	N_4.png	4	Y_1.png	1	Y_2.png	2	Y_3.png	3	Y_4.png	4	confidence.png	1	guessing.png	2	respond_yes.png	3	respond_no.png	4	Word 45 of 80	1	Image 2 of 5	1	crow	2
1	testBlock	centre_mouse	94	32	reveal	im0000041.jpg	N_1.png	1	N_2.png	2	N_3.png	3	N_4.png	4	Y_1.png	1	Y_2.png	2	Y_3.png	3	Y_4.png	4	confidence.png	1	guessing.png	2	respond_yes.png	3	respond_no.png	4	Word 45 of 80	1	Image 2 of 5	1	reveal.png	5
1	testBlock	present_trial	95	43	yes_4	im0000041.jpg	N_1.png	1	N_2.png	2	N_3.png	3	N_4.png	4	Y_1.png	1	Y_2.png	2	Y_3.png	3	Y_4.png	4	confidence.png	1	guessing.png	2	respond_yes.png	3	respond_no.png	4	Word 46 of 80	1	Image 2 of 5	1	mud	35
1	testBlock	centre_mouse	96	32	reveal	im0000041.jpg	N_1.png	1	N_2.png	2	N_3.png	3	N_4.png	4	Y_1.png	1	Y_2.png	2	Y_3.png	3	Y_4.png	4	confidence.png	1	guessing.png	2	respond_yes.png	3	respond_no.png	4	Word 46 of 80	1	Image 2 of 5	1	reveal.png	5
1	testBlock	present_trial	97	40	yes_4	im0000041.jpg	N_1.png	1	N_2.png	2	N_3.png	3	N_4.png	4	Y_1.png	1	Y_2.png	2	Y_3.png	3	Y_4.png	4	confidence.png	1	guessing.png	2	respond_yes.png	3	respond_no.png	4	Word 47 of 80	1	Image 2 of 5	1	pasture	3
1	testBlock	centre_mouse	98	32	reveal	im0000041.jpg	N_1.png	1	N_2.png	2	N_3.png	3	N_4.png	4	Y_1.png	1	Y_2.png	2	Y_3.png	3	Y_4.png	4	confidence.png	1	guessing.png	2	respond_yes.png	3	respond_no.png	4	Word 47 of 80	1	Image 2 of 5	1	reveal.png	5
1	testBlock	present_trial	99	56	yes_4	im0000041.jpg	N_1.png	1	N_2.png	2	N_3.png	3	N_4.png	4	Y_1.png	1	Y_2.png	2	Y_3.png	3	Y_4.png	4	confidence.png	1	guessing.png	2	respond_yes.png	3	respond_no.png	4	Word 48 of 80	1	Image 2 of 5	1	trainer	23
1	testBlock	centre_mouse	100	58	reveal	im0000041.jpg	N_1.png	1	N_2.png	2	N_3.png	3	N_4.png	4	Y_1.png	1	Y_2.png	2	Y_3.png	3	Y_4.png	4	confidence.png	1	guessing.png	2	respond_yes.png	3	respond_no.png	4	Word 48 of 80	1	Image 2 of 5	1	reveal.png	5
1	testBlock	absent_trial	101	45	no_3	im0000041.jpg	N_1.png	1	N_2.png	2	N_3.png	3	N_4.png	4	Y_1.png	1	Y_2.png	2	Y_3.png	3	Y_4.png	4	confidence.png	1	guessing.png	2	respond_yes.png	3	respond_no.png	4	Word 49 of 80	1	Image 2 of 5	1	barren	24
1	testBlock	centre_mouse	102	36	reveal	im0000041.jpg	N_1.png	1	N_2.png	2	N_3.png	3	N_4.png	4	Y_1.png	1	Y_2.png	2	Y_3.png	3	Y_4.png	4	confidence.png	1	guessing.png	2	respond_yes.png	3	respond_no.png	4	Word 49 of 80	1	Image 2 of 5	1	reveal.png	5
1	testBlock	absent_trial	103	52	yes_1	im0000041.jpg	N_1.png	1	N_2.png	2	N_3.png	3	N_4.png	4	Y_1.png	1	Y_2.png	2	Y_3.png	3	Y_4.png	4	confidence.png	1	guessing.png	2	respond_yes.png	3	respond_no.png	4	Word 50 of 80	1	Image 2 of 5	1	bird	39
1	testBlock	centre_mouse	104	59	reveal	im0000041.jpg	N_1.png	1	N_2.png	2	N_3.png	3	N_4.png	4	Y_1.png	1	Y_2.png	2	Y_3.png	3	Y_4.png	4	confidence.png	1	guessing.png	2	respond_yes.png	3	respond_no.png	4	Word 50 of 80	1	Image 2 of 5	1	reveal.png	5
1	testBlock	catch_absent_trial	105	30	no_4	im0000041.jpg	N_1.png	1	N_2.png	2	N_3.png	3	N_4.png	4	Y_1.png	1	Y_2.png	2	Y_3.png	3	Y_4.png	4	confidence.png	1	guessing.png	2	respond_yes.png	3	respond_no.png	4	Word 50 of 80	1	Image 2 of 5	1	PRESS: No 2	2
1	testBlock	centre_mouse	106	44	reveal	im0000041.jpg	N_1.png	1	N_2.png	2	N_3.png	3	N_4.png	4	Y_1.png	1	Y_2.png	2	Y_3.png	3	Y_4.png	4	confidence.png	1	guessing.png	2	respond_yes.png	3	respond_no.png	4	Word 50 of 80	1	Image 2 of 5	1	reveal.png	5
1	testBlock	present_trial	107	36	no_1	im0000041.jpg	N_1.png	1	N_2.png	2	N_3.png	3	N_4.png	4	Y_1.png	1	Y_2.png	2	Y_3.png	3	Y_4.png	4	confidence.png	1	guessing.png	2	respond_yes.png	3	respond_no.png	4	Word 51 of 80	1	Image 2 of 5	1	sun	33
1	testBlock	centre_mouse	108	68	reveal	im0000041.jpg	N_1.png	1	N_2.png	2	N_3.png	3	N_4.png	4	Y_1.png	1	Y_2.png	2	Y_3.png	3	Y_4.png	4	confidence.png	1	guessing.png	2	respond_yes.png	3	respond_no.png	4	Word 51 of 80	1	Image 2 of 5	1	reveal.png	5
1	testBlock	present_trial	109	53	yes_2	im0000041.jpg	N_1.png	1	N_2.png	2	N_3.png	3	N_4.png	4	Y_1.png	1	Y_2.png	2	Y_3.png	3	Y_4.png	4	confidence.png	1	guessing.png	2	respond_yes.png	3	respond_no.png	4	Word 52 of 80	1	Image 2 of 5	1	fence	6
1	testBlock	centre_mouse	110	28	reveal	im0000041.jpg	N_1.png	1	N_2.png	2	N_3.png	3	N_4.png	4	Y_1.png	1	Y_2.png	2	Y_3.png	3	Y_4.png	4	confidence.png	1	guessing.png	2	respond_yes.png	3	respond_no.png	4	Word 52 of 80	1	Image 2 of 5	1	reveal.png	5
1	testBlock	absent_trial	111	50	no_2	im0000041.jpg	N_1.png	1	N_2.png	2	N_3.png	3	N_4.png	4	Y_1.png	1	Y_2.png	2	Y_3.png	3	Y_4.png	4	confidence.png	1	guessing.png	2	respond_yes.png	3	respond_no.png	4	Word 53 of 80	1	Image 2 of 5	1	cloudy	29
1	testBlock	centre_mouse	112	37	reveal	im0000041.jpg	N_1.png	1	N_2.png	2	N_3.png	3	N_4.png	4	Y_1.png	1	Y_2.png	2	Y_3.png	3	Y_4.png	4	confidence.png	1	guessing.png	2	respond_yes.png	3	respond_no.png	4	Word 53 of 80	1	Image 2 of 5	1	reveal.png	5
1	testBlock	present_trial	113	50	yes_4	im0000041.jpg	N_1.png	1	N_2.png	2	N_3.png	3	N_4.png	4	Y_1.png	1	Y_2.png	2	Y_3.png	3	Y_4.png	4	confidence.png	1	guessing.png	2	respond_yes.png	3	respond_no.png	4	Word 54 of 80	1	Image 2 of 5	1	foggy	26
1	testBlock	centre_mouse	114	23	reveal	im0000041.jpg	N_1.png	1	N_2.png	2	N_3.png	3	N_4.png	4	Y_1.png	1	Y_2.png	2	Y_3.png	3	Y_4.png	4	confidence.png	1	guessing.png	2	respond_yes.png	3	respond_no.png	4	Word 54 of 80	1	Image 2 of 5	1	reveal.png	5
1	testBlock	absent_trial	115	17	no_3	im0000041.jpg	N_1.png	1	N_2.png	2	N_3.png	3	N_4.png	4	Y_1.png	1	Y_2.png	2	Y_3.png	3	Y_4.png	4	confidence.png	1	guessing.png	2	respond_yes.png	3	respond_no.png	4	Word 55 of 80	1	Image 2 of 5	1	dome	5
1	testBlock	centre_mouse	116	57	reveal	im0000041.jpg	N_1.png	1	N_2.png	2	N_3.png	3	N_4.png	4	Y_1.png	1	Y_2.png	2	Y_3.png	3	Y_4.png	4	confidence.png	1	guessing.png	2	respond_yes.png	3	respond_no.png	4	Word 55 of 80	1	Image 2 of 5	1	reveal.png	5
1	testBlock	absent_trial	117	42	yes_1	im0000041.jpg	N_1.png	1	N_2.png	2	N_3.png	3	N_4.png	4	Y_1.png	1	Y_2.png	2	Y_3.png	3	Y_4.png	4	confidence.png	1	guessing.png	2	respond_yes.png	3	respond_no.png	4	Word 56 of 80	1	Image 2 of 5	1	explore	9
1	testBlock	centre_mouse	118	70	reveal	im0000041.jpg	N_1.png	1	N_2.png	2	N_3.png	3	N_4.png	4	Y_1.png	1	Y_2.png	2	Y_3.png	3	Y_4.png	4	confidence.png	1	guessing.png	2	respond_yes.png	3	respond_no.png	4	Word 56 of 80	1	Image 2 of 5	1	reveal.png	5
1	testBlock	absent_trial	119	32	no_3	im0000041.jpg	N_1.png	1	N_2.png	2	N_3.png	3	N_4.png	4	Y_1.png	1	Y_2.png	2	Y_3.png	3	Y_4.png	4	confidence.png	1	guessing.png	2	respond_yes.png	3	respond_no.png	4	Word 57 of 80	1	Image 2 of 5	1	bland	28
1	testBlock	centre_mouse	120	45	reveal	im0000041.jpg	N_1.png	1	N_2.png	2	N_3.png	3	N_4.png	4	Y_1.png	1	Y_2.png	2	Y_3.png	3	Y_4.png	4	confidence.png	1	guessing.png	2	respond_yes.png	3	respond_no.png	4	Word 57 of 80	1	Image 2 of 5	1	reveal.png	5
1	testBlock	absent_trial	121	24	no_4	im0000041.jpg	N_1.png	1	N_2.png	2	N_3.png	3	N_4.png	4	Y_1.png	1	Y_2.png	2	Y_3.png	3	Y_4.png	4	confidence.png	1	guessing.png	2	respond_yes.png	3	respond_no.png	4	Word 58 of 80	1	Image 2 of 5	1	play	25
1	testBlock	centre_mouse	122	42	reveal	im0000041.jpg	N_1.png	1	N_2.png	2	N_3.png	3	N_4.png	4	Y_1.png	1	Y_2.png	2	Y_3.png	3	Y_4.png	4	confidence.png	1	guessing.png	2	respond_yes.png	3	respond_no.png	4	Word 58 of 80	1	Image 2 of 5	1	reveal.png	5
1	testBlock	present_trial	123	40	yes_4	im0000041.jpg	N_1.png	1	N_2.png	2	N_3.png	3	N_4.png	4	Y_1.png	1	Y_2.png	2	Y_3.png	3	Y_4.png	4	confidence.png	1	guessing.png	2	respond_yes.png	3	respond_no.png	4	Word 59 of 80	1	Image 2 of 5	1	morning	27
1	testBlock	centre_mouse	124	50	reveal	im0000041.jpg	N_1.png	1	N_2.png	2	N_3.png	3	N_4.png	4	Y_1.png	1	Y_2.png	2	Y_3.png	3	Y_4.png	4	confidence.png	1	guessing.png	2	respond_yes.png	3	respond_no.png	4	Word 59 of 80	1	Image 2 of 5	1	reveal.png	5
1	testBlock	present_trial	125	40	yes_4	im0000041.jpg	N_1.png	1	N_2.png	2	N_3.png	3	N_4.png	4	Y_1.png	1	Y_2.png	2	Y_3.png	3	Y_4.png	4	confidence.png	1	guessing.png	2	respond_yes.png	3	respond_no.png	4	Word 60 of 80	1	Image 2 of 5	1	dirt	10
1	testBlock	centre_mouse	126	45	reveal	im0000041.jpg	N_1.png	1	N_2.png	2	N_3.png	3	N_4.png	4	Y_1.png	1	Y_2.png	2	Y_3.png	3	Y_4.png	4	confidence.png	1	guessing.png	2	respond_yes.png	3	respond_no.png	4	Word 60 of 80	1	Image 2 of 5	1	reveal.png	5
1	testBlock	present_trial	127	37	yes_2	im0000041.jpg	N_1.png	1	N_2.png	2	N_3.png	3	N_4.png	4	Y_1.png	1	Y_2.png	2	Y_3.png	3	Y_4.png	4	confidence.png	1	guessing.png	2	respond_yes.png	3	respond_no.png	4	Word 61 of 80	1	Image 2 of 5	1	graze	32
1	testBlock	centre_mouse	128	35	reveal	im0000041.jpg	N_1.png	1	N_2.png	2	N_3.png	3	N_4.png	4	Y_1.png	1	Y_2.png	2	Y_3.png	3	Y_4.png	4	confidence.png	1	guessing.png	2	respond_yes.png	3	respond_no.png	4	Word 61 of 80	1	Image 2 of 5	1	reveal.png	5
1	testBlock	absent_trial	129	55	no_3	im0000041.jpg	N_1.png	1	N_2.png	2	N_3.png	3	N_4.png	4	Y_1.png	1	Y_2.png	2	Y_3.png	3	Y_4.png	4	confidence.png	1	guessing.png	2	respond_yes.png	3	respond_no.png	4	Word 62 of 80	1	Image 2 of 5	1	board	32
1	testBlock	centre_mouse	130	56	reveal	im0000041.jpg	N_1.png	1	N_2.png	2	N_3.png	3	N_4.png	4	Y_1.png	1	Y_2.png	2	Y_3.png	3	Y_4.png	4	confidence.png	1	guessing.png	2	respond_yes.png	3	respond_no.png	4	Word 62 of 80	1	Image 2 of 5	1	reveal.png	5
1	testBlock	present_trial	131	40	yes_4	im0000041.jpg	N_1.png	1	N_2.png	2	N_3.png	3	N_4.png	4	Y_1.png	1	Y_2.png	2	Y_3.png	3	Y_4.png	4	confidence.png	1	guessing.png	2	respond_yes.png	3	respond_no.png	4	Word 63 of 80	1	Image 2 of 5	1	outdoor	12
1	testBlock	centre_mouse	132	47	reveal	im0000041.jpg	N_1.png	1	N_2.png	2	N_3.png	3	N_4.png	4	Y_1.png	1	Y_2.png	2	Y_3.png	3	Y_4.png	4	confidence.png	1	guessing.png	2	respond_yes.png	3	respond_no.png	4	Word 63 of 80	1	Image 2 of 5	1	reveal.png	5
1	testBlock	absent_trial	133	41	no_3	im0000041.jpg	N_1.png	1	N_2.png	2	N_3.png	3	N_4.png	4	Y_1.png	1	Y_2.png	2	Y_3.png	3	Y_4.png	4	confidence.png	1	guessing.png	2	respond_yes.png	3	respond_no.png	4	Word 64 of 80	1	Image 2 of 5	1	light	12
1	testBlock	centre_mouse	134	56	reveal	im0000041.jpg	N_1.png	1	N_2.png	2	N_3.png	3	N_4.png	4	Y_1.png	1	Y_2.png	2	Y_3.png	3	Y_4.png	4	confidence.png	1	guessing.png	2	respond_yes.png	3	respond_no.png	4	Word 64 of 80	1	Image 2 of 5	1	reveal.png	5
1	testBlock	absent_trial	135	37	no_4	im0000041.jpg	N_1.png	1	N_2.png	2	N_3.png	3	N_4.png	4	Y_1.png	1	Y_2.png	2	Y_3.png	3	Y_4.png	4	confidence.png	1	guessing.png	2	respond_yes.png	3	respond_no.png	4	Word 65 of 80	1	Image 2 of 5	1	chisel	20
1	testBlock	centre_mouse	136	39	reveal	im0000041.jpg	N_1.png	1	N_2.png	2	N_3.png	3	N_4.png	4	Y_1.png	1	Y_2.png	2	Y_3.png	3	Y_4.png	4	confidence.png	1	guessing.png	2	respond_yes.png	3	respond_no.png	4	Word 65 of 80	1	Image 2 of 5	1	reveal.png	5
1	testBlock	absent_trial	137	37	yes_4	im0000041.jpg	N_1.png	1	N_2.png	2	N_3.png	3	N_4.png	4	Y_1.png	1	Y_2.png	2	Y_3.png	3	Y_4.png	4	confidence.png	1	guessing.png	2	respond_yes.png	3	respond_no.png	4	Word 66 of 80	1	Image 2 of 5	1	thrill	40
1	testBlock	centre_mouse	138	45	reveal	im0000041.jpg	N_1.png	1	N_2.png	2	N_3.png	3	N_4.png	4	Y_1.png	1	Y_2.png	2	Y_3.png	3	Y_4.png	4	confidence.png	1	guessing.png	2	respond_yes.png	3	respond_no.png	4	Word 66 of 80	1	Image 2 of 5	1	reveal.png	5
1	testBlock	absent_trial	139	51	no_4	im0000041.jpg	N_1.png	1	N_2.png	2	N_3.png	3	N_4.png	4	Y_1.png	1	Y_2.png	2	Y_3.png	3	Y_4.png	4	confidence.png	1	guessing.png	2	respond_yes.png	3	respond_no.png	4	Word 67 of 80	1	Image 2 of 5	1	vapor	27
1	testBlock	centre_mouse	140	36	reveal	im0000041.jpg	N_1.png	1	N_2.png	2	N_3.png	3	N_4.png	4	Y_1.png	1	Y_2.png	2	Y_3.png	3	Y_4.png	4	confidence.png	1	guessing.png	2	respond_yes.png	3	respond_no.png	4	Word 67 of 80	1	Image 2 of 5	1	reveal.png	5
1	testBlock	present_trial	141	26	yes_3	im0000041.jpg	N_1.png	1	N_2.png	2	N_3.png	3	N_4.png	4	Y_1.png	1	Y_2.png	2	Y_3.png	3	Y_4.png	4	confidence.png	1	guessing.png	2	respond_yes.png	3	respond_no.png	4	Word 68 of 80	1	Image 2 of 5	1	ranch	29
1	testBlock	centre_mouse	142	34	reveal	im0000041.jpg	N_1.png	1	N_2.png	2	N_3.png	3	N_4.png	4	Y_1.png	1	Y_2.png	2	Y_3.png	3	Y_4.png	4	confidence.png	1	guessing.png	2	respond_yes.png	3	respond_no.png	4	Word 68 of 80	1	Image 2 of 5	1	reveal.png	5
1	testBlock	absent_trial	143	33	no_3	im0000041.jpg	N_1.png	1	N_2.png	2	N_3.png	3	N_4.png	4	Y_1.png	1	Y_2.png	2	Y_3.png	3	Y_4.png	4	confidence.png	1	guessing.png	2	respond_yes.png	3	respond_no.png	4	Word 69 of 80	1	Image 2 of 5	1	watercraft	10
1	testBlock	centre_mouse	144	52	reveal	im0000041.jpg	N_1.png	1	N_2.png	2	N_3.png	3	N_4.png	4	Y_1.png	1	Y_2.png	2	Y_3.png	3	Y_4.png	4	confidence.png	1	guessing.png	2	respond_yes.png	3	respond_no.png	4	Word 69 of 80	1	Image 2 of 5	1	reveal.png	5
1	testBlock	present_trial	145	30	yes_3	im0000041.jpg	N_1.png	1	N_2.png	2	N_3.png	3	N_4.png	4	Y_1.png	1	Y_2.png	2	Y_3.png	3	Y_4.png	4	confidence.png	1	guessing.png	2	respond_yes.png	3	respond_no.png	4	Word 70 of 80	1	Image 2 of 5	1	bird	34
1	testBlock	centre_mouse	146	36	reveal	im0000041.jpg	N_1.png	1	N_2.png	2	N_3.png	3	N_4.png	4	Y_1.png	1	Y_2.png	2	Y_3.png	3	Y_4.png	4	confidence.png	1	guessing.png	2	respond_yes.png	3	respond_no.png	4	Word 70 of 80	1	Image 2 of 5	1	reveal.png	5
1	testBlock	absent_trial	147	62	no_3	im0000041.jpg	N_1.png	1	N_2.png	2	N_3.png	3	N_4.png	4	Y_1.png	1	Y_2.png	2	Y_3.png	3	Y_4.png	4	confidence.png	1	guessing.png	2	respond_yes.png	3	respond_no.png	4	Word 71 of 80	1	Image 2 of 5	1	disturb	30
1	testBlock	centre_mouse	148	43	reveal	im0000041.jpg	N_1.png	1	N_2.png	2	N_3.png	3	N_4.png	4	Y_1.png	1	Y_2.png	2	Y_3.png	3	Y_4.png	4	confidence.png	1	guessing.png	2	respond_yes.png	3	respond_no.png	4	Word 71 of 80	1	Image 2 of 5	1	reveal.png	5
1	testBlock	present_trial	149	49	yes_3	im0000041.jpg	N_1.png	1	N_2.png	2	N_3.png	3	N_4.png	4	Y_1.png	1	Y_2.png	2	Y_3.png	3	Y_4.png	4	confidence.png	1	guessing.png	2	respond_yes.png	3	respond_no.png	4	Word 72 of 80	1	Image 2 of 5	1	calm	39
1	testBlock	centre_mouse	150	37	reveal	im0000041.jpg	N_1.png	1	N_2.png	2	N_3.png	3	N_4.png	4	Y_1.png	1	Y_2.png	2	Y_3.png	3	Y_4.png	4	confidence.png	1	guessing.png	2	respond_yes.png	3	respond_no.png	4	Word 72 of 80	1	Image 2 of 5	1	reveal.png	5
1	testBlock	absent_trial	151	35	no_2	im0000041.jpg	N_1.png	1	N_2.png	2	N_3.png	3	N_4.png	4	Y_1.png	1	Y_2.png	2	Y_3.png	3	Y_4.png	4	confidence.png	1	guessing.png	2	respond_yes.png	3	respond_no.png	4	Word 73 of 80	1	Image 2 of 5	1	swim	23
1	testBlock	centre_mouse	152	59	reveal	im0000041.jpg	N_1.png	1	N_2.png	2	N_3.png	3	N_4.png	4	Y_1.png	1	Y_2.png	2	Y_3.png	3	Y_4.png	4	confidence.png	1	guessing.png	2	respond_yes.png	3	respond_no.png	4	Word 73 of 80	1	Image 2 of 5	1	reveal.png	5
1	testBlock	present_trial	153	41	yes_4	im0000041.jpg	N_1.png	1	N_2.png	2	N_3.png	3	N_4.png	4	Y_1.png	1	Y_2.png	2	Y_3.png	3	Y_4.png	4	confidence.png	1	guessing.png	2	respond_yes.png	3	respond_no.png	4	Word 74 of 80	1	Image 2 of 5	1	relax	20
1	testBlock	centre_mouse	154	29	reveal	im0000041.jpg	N_1.png	1	N_2.png	2	N_3.png	3	N_4.png	4	Y_1.png	1	Y_2.png	2	Y_3.png	3	Y_4.png	4	confidence.png	1	guessing.png	2	respond_yes.png	3	respond_no.png	4	Word 74 of 80	1	Image 2 of 5	1	reveal.png	5
