subject,blockcode,trialcode,trialnum,latency,response,values.imageName,stimulusitem1,stimulusnumber1,stimulusitem2,stimulusnumber2,stimulusitem3,stimulusnumber3,stimulusitem4,stimulusnumber4,stimulusitem5,stimulusnumber5,stimulusitem6,stimulusnumber6,stimulusitem7,stimulusnumber7,stimulusitem8,stimulusnumber8,stimulusitem9,stimulusnumber9,stimulusitem10,stimulusnumber10,stimulusitem11,stimulusnumber11,stimulusitem12,stimulusnumber12,stimulusitem13,stimulusnumber13,stimulusitem14,stimulusnumber14,stimulusitem15,stimulusnumber15
2001,practiceBlock,practice,1,0,0,Picture1.jpg,+,1,Picture3.jpg,3,mask5.jpg,5,mask5.jpg,5,mask2.jpg,2,mask2.jpg,2,mask1.jpg,1,0,0,0,0,0,0,0,0,0,0,0,0,0,0,0,0
2001,practiceBlock,centre_mouse,2,1529,reveal,Picture1.jpg,N_1.png,1,N_2.png,2,N_3.png,3,N_4.png,4,Y_1.png,1,Y_2.png,2,Y_3.png,3,Y_4.png,4,confidence.png,1,guessing.png,2,respond_yes.png,3,respond_no.png,4,Word 0 of 12,1,Image 1 of 3,1,reveal.png,5
2001,practiceBlock,practice_present_trial,3,1591,yes_4,Picture3.jpg,N_1.png,1,N_2.png,2,N_3.png,3,N_4.png,4,Y_1.png,1,Y_2.png,2,Y_3.png,3,Y_4.png,4,confidence.png,1,guessing.png,2,respond_yes.png,3,respond_no.png,4,Word 1 of 12,1,Image 1 of 3,1,landscape,4
2001,practiceBlock,centre_mouse,4,734,reveal,Picture3.jpg,N_1.png,1,N_2.png,2,N_3.png,3,N_4.png,4,Y_1.png,1,Y_2.png,2,Y_3.png,3,Y_4.png,4,confidence.png,1,guessing.png,2,respond_yes.png,3,respond_no.png,4,Word 1 of 12,1,Image 1 of 3,1,reveal.png,5
2001,practiceBlock,practice_present_trial,5,733,yes_4,Picture3.jpg,N_1.png,1,N_2.png,2,N_3.png,3,N_4.png,4,Y_1.png,1,Y_2.png,2,Y_3.png,3,Y_4.png,4,confidence.png,1,guessing.png,2,respond_yes.png,3,respond_no.png,4,Word 2 of 12,1,Image 1 of 3,1,sky,6
2001,practiceBlock,centre_mouse,6,274,reveal,Picture3.jpg,N_1.png,1,N_2.png,2,N_3.png,3,N_4.png,4,Y_1.png,1,Y_2.png,2,Y_3.png,3,Y_4.png,4,confidence.png,1,guessing.png,2,respond_yes.png,3,respond_no.png,4,Word 2 of 12,1,Image 1 of 3,1,reveal.png,5
2001,practiceBlock,practice_present_trial,7,576,yes_4,Picture3.jpg,N_1.png,1,N_2.png,2,N_3.png,3,N_4.png,4,Y_1.png,1,Y_2.png,2,Y_3.png,3,Y_4.png,4,confidence.png,1,guessing.png,2,respond_yes.png,3,respond_no.png,4,Word 3 of 12,1,Image 1 of 3,1,sun,2
2001,practiceBlock,centre_mouse,8,454,reveal,Picture3.jpg,N_1.png,1,N_2.png,2,N_3.png,3,N_4.png,4,Y_1.png,1,Y_2.png,2,Y_3.png,3,Y_4.png,4,confidence.png,1,guessing.png,2,respond_yes.png,3,respond_no.png,4,Word 3 of 12,1,Image 1 of 3,1,reveal.png,5
2001,practiceBlock,practice_absent_trial,9,1410,no_4,Picture3.jpg,N_1.png,1,N_2.png,2,N_3.png,3,N_4.png,4,Y_1.png,1,Y_2.png,2,Y_3.png,3,Y_4.png,4,confidence.png,1,guessing.png,2,respond_yes.png,3,respond_no.png,4,Word 4 of 12,1,Image 1 of 3,1,blue-hat,6
2001,practiceBlock,centre_mouse,10,552,reveal,Picture3.jpg,N_1.png,1,N_2.png,2,N_3.png,3,N_4.png,4,Y_1.png,1,Y_2.png,2,Y_3.png,3,Y_4.png,4,confidence.png,1,guessing.png,2,respond_yes.png,3,respond_no.png,4,Word 4 of 12,1,Image 1 of 3,1,reveal.png,5
2001,practiceBlock,practice_present_trial,11,872,yes_4,Picture3.jpg,N_1.png,1,N_2.png,2,N_3.png,3,N_4.png,4,Y_1.png,1,Y_2.png,2,Y_3.png,3,Y_4.png,4,confidence.png,1,guessing.png,2,respond_yes.png,3,respond_no.png,4,Word 5 of 12,1,Image 1 of 3,1,blue,5
2001,practiceBlock,centre_mouse,12,233,reveal,Picture3.jpg,N_1.png,1,N_2.png,2,N_3.png,3,N_4.png,4,Y_1.png,1,Y_2.png,2,Y_3.png,3,Y_4.png,4,confidence.png,1,guessing.png,2,respond_yes.png,3,respond_no.png,4,Word 5 of 12,1,Image 1 of 3,1,reveal.png,5
2001,practiceBlock,practice_absent_trial,13,1906,no_2,Picture3.jpg,N_1.png,1,N_2.png,2,N_3.png,3,N_4.png,4,Y_1.png,1,Y_2.png,2,Y_3.png,3,Y_4.png,4,confidence.png,1,guessing.png,2,respond_yes.png,3,respond_no.png,4,Word 6 of 12,1,Image 1 of 3,1,old,4
2001,practiceBlock,centre_mouse,14,306,reveal,Picture3.jpg,N_1.png,1,N_2.png,2,N_3.png,3,N_4.png,4,Y_1.png,1,Y_2.png,2,Y_3.png,3,Y_4.png,4,confidence.png,1,guessing.png,2,respond_yes.png,3,respond_no.png,4,Word 6 of 12,1,Image 1 of 3,1,reveal.png,5
2001,practiceBlock,practice_present_trial,15,1255,yes_4,Picture3.jpg,N_1.png,1,N_2.png,2,N_3.png,3,N_4.png,4,Y_1.png,1,Y_2.png,2,Y_3.png,3,Y_4.png,4,confidence.png,1,guessing.png,2,respond_yes.png,3,respond_no.png,4,Word 7 of 12,1,Image 1 of 3,1,mountain,1
2001,practiceBlock,centre_mouse,16,517,reveal,Picture3.jpg,N_1.png,1,N_2.png,2,N_3.png,3,N_4.png,4,Y_1.png,1,Y_2.png,2,Y_3.png,3,Y_4.png,4,confidence.png,1,guessing.png,2,respond_yes.png,3,respond_no.png,4,Word 7 of 12,1,Image 1 of 3,1,reveal.png,5
2001,practiceBlock,practice_absent_trial,17,949,no_1,Picture3.jpg,N_1.png,1,N_2.png,2,N_3.png,3,N_4.png,4,Y_1.png,1,Y_2.png,2,Y_3.png,3,Y_4.png,4,confidence.png,1,guessing.png,2,respond_yes.png,3,respond_no.png,4,Word 8 of 12,1,Image 1 of 3,1,coat,3
2001,practiceBlock,centre_mouse,18,1731,reveal,Picture3.jpg,N_1.png,1,N_2.png,2,N_3.png,3,N_4.png,4,Y_1.png,1,Y_2.png,2,Y_3.png,3,Y_4.png,4,confidence.png,1,guessing.png,2,respond_yes.png,3,respond_no.png,4,Word 8 of 12,1,Image 1 of 3,1,reveal.png,5
2001,practiceBlock,practice_absent_trial,19,1304,no_4,Picture3.jpg,N_1.png,1,N_2.png,2,N_3.png,3,N_4.png,4,Y_1.png,1,Y_2.png,2,Y_3.png,3,Y_4.png,4,confidence.png,1,guessing.png,2,respond_yes.png,3,respond_no.png,4,Word 9 of 12,1,Image 1 of 3,1,zoomed-in,1
2001,practiceBlock,centre_mouse,20,277,reveal,Picture3.jpg,N_1.png,1,N_2.png,2,N_3.png,3,N_4.png,4,Y_1.png,1,Y_2.png,2,Y_3.png,3,Y_4.png,4,confidence.png,1,guessing.png,2,respond_yes.png,3,respond_no.png,4,Word 9 of 12,1,Image 1 of 3,1,reveal.png,5
2001,practiceBlock,practice_absent_trial,21,815,no_4,Picture3.jpg,N_1.png,1,N_2.png,2,N_3.png,3,N_4.png,4,Y_1.png,1,Y_2.png,2,Y_3.png,3,Y_4.png,4,confidence.png,1,guessing.png,2,respond_yes.png,3,respond_no.png,4,Word 10 of 12,1,Image 1 of 3,1,stand,5
2001,practiceBlock,centre_mouse,22,1173,reveal,Picture3.jpg,N_1.png,1,N_2.png,2,N_3.png,3,N_4.png,4,Y_1.png,1,Y_2.png,2,Y_3.png,3,Y_4.png,4,confidence.png,1,guessing.png,2,respond_yes.png,3,respond_no.png,4,Word 10 of 12,1,Image 1 of 3,1,reveal.png,5
2001,practiceBlock,practice_absent_trial,23,593,no_4,Picture3.jpg,N_1.png,1,N_2.png,2,N_3.png,3,N_4.png,4,Y_1.png,1,Y_2.png,2,Y_3.png,3,Y_4.png,4,confidence.png,1,guessing.png,2,respond_yes.png,3,respond_no.png,4,Word 11 of 12,1,Image 1 of 3,1,horse,2
2001,practiceBlock,centre_mouse,24,431,reveal,Picture3.jpg,N_1.png,1,N_2.png,2,N_3.png,3,N_4.png,4,Y_1.png,1,Y_2.png,2,Y_3.png,3,Y_4.png,4,confidence.png,1,guessing.png,2,respond_yes.png,3,respond_no.png,4,Word 11 of 12,1,Image 1 of 3,1,reveal.png,5
2001,practiceBlock,practice_present_trial,25,942,yes_4,Picture3.jpg,N_1.png,1,N_2.png,2,N_3.png,3,N_4.png,4,Y_1.png,1,Y_2.png,2,Y_3.png,3,Y_4.png,4,confidence.png,1,guessing.png,2,respond_yes.png,3,respond_no.png,4,Word 12 of 12,1,Image 1 of 3,1,cloud,3
2001,practiceBlock,centre_mouse,26,315,reveal,Picture3.jpg,N_1.png,1,N_2.png,2,N_3.png,3,N_4.png,4,Y_1.png,1,Y_2.png,2,Y_3.png,3,Y_4.png,4,confidence.png,1,guessing.png,2,respond_yes.png,3,respond_no.png,4,Word 12 of 12,1,Image 1 of 3,1,reveal.png,5
2001,practiceBlock,catch_absent_trial,27,922,yes_3,Picture3.jpg,N_1.png,1,N_2.png,2,N_3.png,3,N_4.png,4,Y_1.png,1,Y_2.png,2,Y_3.png,3,Y_4.png,4,confidence.png,1,guessing.png,2,respond_yes.png,3,respond_no.png,4,Word 12 of 12,1,Image 1 of 3,1,PRESS: No 3,3
2001,practiceBlock,centre_mouse,28,1503,reveal,Picture3.jpg,N_1.png,1,N_2.png,2,N_3.png,3,N_4.png,4,Y_1.png,1,Y_2.png,2,Y_3.png,3,Y_4.png,4,confidence.png,1,guessing.png,2,respond_yes.png,3,respond_no.png,4,Word 12 of 12,1,Image 1 of 3,1,reveal.png,5
2001,practiceBlock,catch_present_trial,29,4144,yes_2,Picture3.jpg,N_1.png,1,N_2.png,2,N_3.png,3,N_4.png,4,Y_1.png,1,Y_2.png,2,Y_3.png,3,Y_4.png,4,confidence.png,1,guessing.png,2,respond_yes.png,3,respond_no.png,4,Word 12 of 12,1,Image 1 of 3,1,PRESS: Yes 2,2
2001,practiceBlock,centre_mouse,30,628,reveal,Picture3.jpg,N_1.png,1,N_2.png,2,N_3.png,3,N_4.png,4,Y_1.png,1,Y_2.png,2,Y_3.png,3,Y_4.png,4,confidence.png,1,guessing.png,2,respond_yes.png,3,respond_no.png,4,Word 12 of 12,1,Image 1 of 3,1,reveal.png,5
2001,practiceBlock,practice,1,0,0,Picture3.jpg,+,1,Picture1.jpg,1,mask1.jpg,1,mask4.jpg,4,mask3.jpg,3,mask1.jpg,1,mask2.jpg,2,0,0,0,0,0,0,0,0,0,0,0,0,0,0,0,0
2001,practiceBlock,centre_mouse,2,722,reveal,Picture3.jpg,N_1.png,1,N_2.png,2,N_3.png,3,N_4.png,4,Y_1.png,1,Y_2.png,2,Y_3.png,3,Y_4.png,4,confidence.png,1,guessing.png,2,respond_yes.png,3,respond_no.png,4,Word 0 of 12,1,Image 2 of 3,1,reveal.png,5
2001,practiceBlock,practice_present_trial,3,852,yes_4,Picture1.jpg,N_1.png,1,N_2.png,2,N_3.png,3,N_4.png,4,Y_1.png,1,Y_2.png,2,Y_3.png,3,Y_4.png,4,confidence.png,1,guessing.png,2,respond_yes.png,3,respond_no.png,4,Word 1 of 12,1,Image 2 of 3,1,heart,1
2001,practiceBlock,centre_mouse,4,226,reveal,Picture1.jpg,N_1.png,1,N_2.png,2,N_3.png,3,N_4.png,4,Y_1.png,1,Y_2.png,2,Y_3.png,3,Y_4.png,4,confidence.png,1,guessing.png,2,respond_yes.png,3,respond_no.png,4,Word 1 of 12,1,Image 2 of 3,1,reveal.png,5
2001,practiceBlock,practice_absent_trial,5,678,no_4,Picture1.jpg,N_1.png,1,N_2.png,2,N_3.png,3,N_4.png,4,Y_1.png,1,Y_2.png,2,Y_3.png,3,Y_4.png,4,confidence.png,1,guessing.png,2,respond_yes.png,3,respond_no.png,4,Word 2 of 12,1,Image 2 of 3,1,crow,2
2001,practiceBlock,centre_mouse,6,501,reveal,Picture1.jpg,N_1.png,1,N_2.png,2,N_3.png,3,N_4.png,4,Y_1.png,1,Y_2.png,2,Y_3.png,3,Y_4.png,4,confidence.png,1,guessing.png,2,respond_yes.png,3,respond_no.png,4,Word 2 of 12,1,Image 2 of 3,1,reveal.png,5
2001,practiceBlock,practice_absent_trial,7,648,no_4,Picture1.jpg,N_1.png,1,N_2.png,2,N_3.png,3,N_4.png,4,Y_1.png,1,Y_2.png,2,Y_3.png,3,Y_4.png,4,confidence.png,1,guessing.png,2,respond_yes.png,3,respond_no.png,4,Word 3 of 12,1,Image 2 of 3,1,dome,5
2001,practiceBlock,centre_mouse,8,479,reveal,Picture1.jpg,N_1.png,1,N_2.png,2,N_3.png,3,N_4.png,4,Y_1.png,1,Y_2.png,2,Y_3.png,3,Y_4.png,4,confidence.png,1,guessing.png,2,respond_yes.png,3,respond_no.png,4,Word 3 of 12,1,Image 2 of 3,1,reveal.png,5
2001,practiceBlock,practice_absent_trial,9,544,no_4,Picture1.jpg,N_1.png,1,N_2.png,2,N_3.png,3,N_4.png,4,Y_1.png,1,Y_2.png,2,Y_3.png,3,Y_4.png,4,confidence.png,1,guessing.png,2,respond_yes.png,3,respond_no.png,4,Word 4 of 12,1,Image 2 of 3,1,day,4
2001,practiceBlock,centre_mouse,10,218,reveal,Picture1.jpg,N_1.png,1,N_2.png,2,N_3.png,3,N_4.png,4,Y_1.png,1,Y_2.png,2,Y_3.png,3,Y_4.png,4,confidence.png,1,guessing.png,2,respond_yes.png,3,respond_no.png,4,Word 4 of 12,1,Image 2 of 3,1,reveal.png,5
2001,practiceBlock,practice_absent_trial,11,572,no_4,Picture1.jpg,N_1.png,1,N_2.png,2,N_3.png,3,N_4.png,4,Y_1.png,1,Y_2.png,2,Y_3.png,3,Y_4.png,4,confidence.png,1,guessing.png,2,respond_yes.png,3,respond_no.png,4,Word 5 of 12,1,Image 2 of 3,1,blanket,1
2001,practiceBlock,centre_mouse,12,261,reveal,Picture1.jpg,N_1.png,1,N_2.png,2,N_3.png,3,N_4.png,4,Y_1.png,1,Y_2.png,2,Y_3.png,3,Y_4.png,4,confidence.png,1,guessing.png,2,respond_yes.png,3,respond_no.png,4,Word 5 of 12,1,Image 2 of 3,1,reveal.png,5
2001,practiceBlock,practice_present_trial,13,738,yes_4,Picture1.jpg,N_1.png,1,N_2.png,2,N_3.png,3,N_4.png,4,Y_1.png,1,Y_2.png,2,Y_3.png,3,Y_4.png,4,confidence.png,1,guessing.png,2,respond_yes.png,3,respond_no.png,4,Word 6 of 12,1,Image 2 of 3,1,love,2
2001,practiceBlock,centre_mouse,14,226,reveal,Picture1.jpg,N_1.png,1,N_2.png,2,N_3.png,3,N_4.png,4,Y_1.png,1,Y_2.png,2,Y_3.png,3,Y_4.png,4,confidence.png,1,guessing.png,2,respond_yes.png,3,respond_no.png,4,Word 6 of 12,1,Image 2 of 3,1,reveal.png,5
2001,practiceBlock,practice_present_trial,15,646,no_4,Picture1.jpg,N_1.png,1,N_2.png,2,N_3.png,3,N_4.png,4,Y_1.png,1,Y_2.png,2,Y_3.png,3,Y_4.png,4,confidence.png,1,guessing.png,2,respond_yes.png,3,respond_no.png,4,Word 7 of 12,1,Image 2 of 3,1,black,4
2001,practiceBlock,centre_mouse,16,515,reveal,Picture1.jpg,N_1.png,1,N_2.png,2,N_3.png,3,N_4.png,4,Y_1.png,1,Y_2.png,2,Y_3.png,3,Y_4.png,4,confidence.png,1,guessing.png,2,respond_yes.png,3,respond_no.png,4,Word 7 of 12,1,Image 2 of 3,1,reveal.png,5
2001,practiceBlock,practice_absent_trial,17,835,no_4,Picture1.jpg,N_1.png,1,N_2.png,2,N_3.png,3,N_4.png,4,Y_1.png,1,Y_2.png,2,Y_3.png,3,Y_4.png,4,confidence.png,1,guessing.png,2,respond_yes.png,3,respond_no.png,4,Word 8 of 12,1,Image 2 of 3,1,line,6
2001,practiceBlock,centre_mouse,18,394,reveal,Picture1.jpg,N_1.png,1,N_2.png,2,N_3.png,3,N_4.png,4,Y_1.png,1,Y_2.png,2,Y_3.png,3,Y_4.png,4,confidence.png,1,guessing.png,2,respond_yes.png,3,respond_no.png,4,Word 8 of 12,1,Image 2 of 3,1,reveal.png,5
2001,practiceBlock,practice_present_trial,19,673,yes_4,Picture1.jpg,N_1.png,1,N_2.png,2,N_3.png,3,N_4.png,4,Y_1.png,1,Y_2.png,2,Y_3.png,3,Y_4.png,4,confidence.png,1,guessing.png,2,respond_yes.png,3,respond_no.png,4,Word 9 of 12,1,Image 2 of 3,1,color,6
2001,practiceBlock,centre_mouse,20,438,reveal,Picture1.jpg,N_1.png,1,N_2.png,2,N_3.png,3,N_4.png,4,Y_1.png,1,Y_2.png,2,Y_3.png,3,Y_4.png,4,confidence.png,1,guessing.png,2,respond_yes.png,3,respond_no.png,4,Word 9 of 12,1,Image 2 of 3,1,reveal.png,5
2001,practiceBlock,practice_absent_trial,21,575,no_4,Picture1.jpg,N_1.png,1,N_2.png,2,N_3.png,3,N_4.png,4,Y_1.png,1,Y_2.png,2,Y_3.png,3,Y_4.png,4,confidence.png,1,guessing.png,2,respond_yes.png,3,respond_no.png,4,Word 10 of 12,1,Image 2 of 3,1,wall,3
2001,practiceBlock,centre_mouse,22,303,reveal,Picture1.jpg,N_1.png,1,N_2.png,2,N_3.png,3,N_4.png,4,Y_1.png,1,Y_2.png,2,Y_3.png,3,Y_4.png,4,confidence.png,1,guessing.png,2,respond_yes.png,3,respond_no.png,4,Word 10 of 12,1,Image 2 of 3,1,reveal.png,5
2001,practiceBlock,practice_present_trial,23,615,no_4,Picture1.jpg,N_1.png,1,N_2.png,2,N_3.png,3,N_4.png,4,Y_1.png,1,Y_2.png,2,Y_3.png,3,Y_4.png,4,confidence.png,1,guessing.png,2,respond_yes.png,3,respond_no.png,4,Word 11 of 12,1,Image 2 of 3,1,red,3
2001,practiceBlock,centre_mouse,24,744,reveal,Picture1.jpg,N_1.png,1,N_2.png,2,N_3.png,3,N_4.png,4,Y_1.png,1,Y_2.png,2,Y_3.png,3,Y_4.png,4,confidence.png,1,guessing.png,2,respond_yes.png,3,respond_no.png,4,Word 11 of 12,1,Image 2 of 3,1,reveal.png,5
2001,practiceBlock,practice_present_trial,25,534,no_4,Picture1.jpg,N_1.png,1,N_2.png,2,N_3.png,3,N_4.png,4,Y_1.png,1,Y_2.png,2,Y_3.png,3,Y_4.png,4,confidence.png,1,guessing.png,2,respond_yes.png,3,respond_no.png,4,Word 12 of 12,1,Image 2 of 3,1,outline,5
2001,practiceBlock,centre_mouse,26,290,reveal,Picture1.jpg,N_1.png,1,N_2.png,2,N_3.png,3,N_4.png,4,Y_1.png,1,Y_2.png,2,Y_3.png,3,Y_4.png,4,confidence.png,1,guessing.png,2,respond_yes.png,3,respond_no.png,4,Word 12 of 12,1,Image 2 of 3,1,reveal.png,5
2001,practiceBlock,catch_absent_trial,27,1308,yes_4,Picture1.jpg,N_1.png,1,N_2.png,2,N_3.png,3,N_4.png,4,Y_1.png,1,Y_2.png,2,Y_3.png,3,Y_4.png,4,confidence.png,1,guessing.png,2,respond_yes.png,3,respond_no.png,4,Word 12 of 12,1,Image 2 of 3,1,PRESS: No 4,4
2001,practiceBlock,centre_mouse,28,289,reveal,Picture1.jpg,N_1.png,1,N_2.png,2,N_3.png,3,N_4.png,4,Y_1.png,1,Y_2.png,2,Y_3.png,3,Y_4.png,4,confidence.png,1,guessing.png,2,respond_yes.png,3,respond_no.png,4,Word 12 of 12,1,Image 2 of 3,1,reveal.png,5
2001,practiceBlock,catch_present_trial,29,894,yes_4,Picture1.jpg,N_1.png,1,N_2.png,2,N_3.png,3,N_4.png,4,Y_1.png,1,Y_2.png,2,Y_3.png,3,Y_4.png,4,confidence.png,1,guessing.png,2,respond_yes.png,3,respond_no.png,4,Word 12 of 12,1,Image 2 of 3,1,PRESS: Yes 4,4
2001,practiceBlock,centre_mouse,30,267,reveal,Picture1.jpg,N_1.png,1,N_2.png,2,N_3.png,3,N_4.png,4,Y_1.png,1,Y_2.png,2,Y_3.png,3,Y_4.png,4,confidence.png,1,guessing.png,2,respond_yes.png,3,respond_no.png,4,Word 12 of 12,1,Image 2 of 3,1,reveal.png,5
2001,practiceBlock,practice,1,0,0,Picture1.jpg,+,1,Picture2.jpg,2,mask3.jpg,3,mask1.jpg,1,mask4.jpg,4,mask4.jpg,4,mask4.jpg,4,0,0,0,0,0,0,0,0,0,0,0,0,0,0,0,0
2001,practiceBlock,centre_mouse,2,1408,reveal,Picture1.jpg,N_1.png,1,N_2.png,2,N_3.png,3,N_4.png,4,Y_1.png,1,Y_2.png,2,Y_3.png,3,Y_4.png,4,confidence.png,1,guessing.png,2,respond_yes.png,3,respond_no.png,4,Word 0 of 12,1,Image 3 of 3,1,reveal.png,5
2001,practiceBlock,practice_present_trial,3,1384,yes_4,Picture2.jpg,N_1.png,1,N_2.png,2,N_3.png,3,N_4.png,4,Y_1.png,1,Y_2.png,2,Y_3.png,3,Y_4.png,4,confidence.png,1,guessing.png,2,respond_yes.png,3,respond_no.png,4,Word 1 of 12,1,Image 3 of 3,1,emoji,6
2001,practiceBlock,centre_mouse,4,459,reveal,Picture2.jpg,N_1.png,1,N_2.png,2,N_3.png,3,N_4.png,4,Y_1.png,1,Y_2.png,2,Y_3.png,3,Y_4.png,4,confidence.png,1,guessing.png,2,respond_yes.png,3,respond_no.png,4,Word 1 of 12,1,Image 3 of 3,1,reveal.png,5
2001,practiceBlock,practice_present_trial,5,673,yes_4,Picture2.jpg,N_1.png,1,N_2.png,2,N_3.png,3,N_4.png,4,Y_1.png,1,Y_2.png,2,Y_3.png,3,Y_4.png,4,confidence.png,1,guessing.png,2,respond_yes.png,3,respond_no.png,4,Word 2 of 12,1,Image 3 of 3,1,face,1
2001,practiceBlock,centre_mouse,6,483,reveal,Picture2.jpg,N_1.png,1,N_2.png,2,N_3.png,3,N_4.png,4,Y_1.png,1,Y_2.png,2,Y_3.png,3,Y_4.png,4,confidence.png,1,guessing.png,2,respond_yes.png,3,respond_no.png,4,Word 2 of 12,1,Image 3 of 3,1,reveal.png,5
2001,practiceBlock,practice_present_trial,7,574,yes_4,Picture2.jpg,N_1.png,1,N_2.png,2,N_3.png,3,N_4.png,4,Y_1.png,1,Y_2.png,2,Y_3.png,3,Y_4.png,4,confidence.png,1,guessing.png,2,respond_yes.png,3,respond_no.png,4,Word 3 of 12,1,Image 3 of 3,1,eyes,3
2001,practiceBlock,centre_mouse,8,248,reveal,Picture2.jpg,N_1.png,1,N_2.png,2,N_3.png,3,N_4.png,4,Y_1.png,1,Y_2.png,2,Y_3.png,3,Y_4.png,4,confidence.png,1,guessing.png,2,respond_yes.png,3,respond_no.png,4,Word 3 of 12,1,Image 3 of 3,1,reveal.png,5
2001,practiceBlock,practice_absent_trial,9,727,no_4,Picture2.jpg,N_1.png,1,N_2.png,2,N_3.png,3,N_4.png,4,Y_1.png,1,Y_2.png,2,Y_3.png,3,Y_4.png,4,confidence.png,1,guessing.png,2,respond_yes.png,3,respond_no.png,4,Word 4 of 12,1,Image 3 of 3,1,grey-clothes,4
2001,practiceBlock,centre_mouse,10,245,reveal,Picture2.jpg,N_1.png,1,N_2.png,2,N_3.png,3,N_4.png,4,Y_1.png,1,Y_2.png,2,Y_3.png,3,Y_4.png,4,confidence.png,1,guessing.png,2,respond_yes.png,3,respond_no.png,4,Word 4 of 12,1,Image 3 of 3,1,reveal.png,5
2001,practiceBlock,practice_absent_trial,11,874,no_4,Picture2.jpg,N_1.png,1,N_2.png,2,N_3.png,3,N_4.png,4,Y_1.png,1,Y_2.png,2,Y_3.png,3,Y_4.png,4,confidence.png,1,guessing.png,2,respond_yes.png,3,respond_no.png,4,Word 5 of 12,1,Image 3 of 3,1,man,6
2001,practiceBlock,centre_mouse,12,226,reveal,Picture2.jpg,N_1.png,1,N_2.png,2,N_3.png,3,N_4.png,4,Y_1.png,1,Y_2.png,2,Y_3.png,3,Y_4.png,4,confidence.png,1,guessing.png,2,respond_yes.png,3,respond_no.png,4,Word 5 of 12,1,Image 3 of 3,1,reveal.png,5
2001,practiceBlock,practice_absent_trial,13,633,no_4,Picture2.jpg,N_1.png,1,N_2.png,2,N_3.png,3,N_4.png,4,Y_1.png,1,Y_2.png,2,Y_3.png,3,Y_4.png,4,confidence.png,1,guessing.png,2,respond_yes.png,3,respond_no.png,4,Word 6 of 12,1,Image 3 of 3,1,metal,3
2001,practiceBlock,centre_mouse,14,194,reveal,Picture2.jpg,N_1.png,1,N_2.png,2,N_3.png,3,N_4.png,4,Y_1.png,1,Y_2.png,2,Y_3.png,3,Y_4.png,4,confidence.png,1,guessing.png,2,respond_yes.png,3,respond_no.png,4,Word 6 of 12,1,Image 3 of 3,1,reveal.png,5
2001,practiceBlock,practice_present_trial,15,642,yes_4,Picture2.jpg,N_1.png,1,N_2.png,2,N_3.png,3,N_4.png,4,Y_1.png,1,Y_2.png,2,Y_3.png,3,Y_4.png,4,confidence.png,1,guessing.png,2,respond_yes.png,3,respond_no.png,4,Word 7 of 12,1,Image 3 of 3,1,smile,4
2001,practiceBlock,centre_mouse,16,210,reveal,Picture2.jpg,N_1.png,1,N_2.png,2,N_3.png,3,N_4.png,4,Y_1.png,1,Y_2.png,2,Y_3.png,3,Y_4.png,4,confidence.png,1,guessing.png,2,respond_yes.png,3,respond_no.png,4,Word 7 of 12,1,Image 3 of 3,1,reveal.png,5
2001,practiceBlock,practice_absent_trial,17,493,no_4,Picture2.jpg,N_1.png,1,N_2.png,2,N_3.png,3,N_4.png,4,Y_1.png,1,Y_2.png,2,Y_3.png,3,Y_4.png,4,confidence.png,1,guessing.png,2,respond_yes.png,3,respond_no.png,4,Word 8 of 12,1,Image 3 of 3,1,beauty,2
2001,practiceBlock,centre_mouse,18,464,reveal,Picture2.jpg,N_1.png,1,N_2.png,2,N_3.png,3,N_4.png,4,Y_1.png,1,Y_2.png,2,Y_3.png,3,Y_4.png,4,confidence.png,1,guessing.png,2,respond_yes.png,3,respond_no.png,4,Word 8 of 12,1,Image 3 of 3,1,reveal.png,5
2001,practiceBlock,practice_absent_trial,19,569,no_4,Picture2.jpg,N_1.png,1,N_2.png,2,N_3.png,3,N_4.png,4,Y_1.png,1,Y_2.png,2,Y_3.png,3,Y_4.png,4,confidence.png,1,guessing.png,2,respond_yes.png,3,respond_no.png,4,Word 9 of 12,1,Image 3 of 3,1,walk,1
2001,practiceBlock,centre_mouse,20,458,reveal,Picture2.jpg,N_1.png,1,N_2.png,2,N_3.png,3,N_4.png,4,Y_1.png,1,Y_2.png,2,Y_3.png,3,Y_4.png,4,confidence.png,1,guessing.png,2,respond_yes.png,3,respond_no.png,4,Word 9 of 12,1,Image 3 of 3,1,reveal.png,5
2001,practiceBlock,practice_present_trial,21,1144,no_4,Picture2.jpg,N_1.png,1,N_2.png,2,N_3.png,3,N_4.png,4,Y_1.png,1,Y_2.png,2,Y_3.png,3,Y_4.png,4,confidence.png,1,guessing.png,2,respond_yes.png,3,respond_no.png,4,Word 10 of 12,1,Image 3 of 3,1,yellow,2
2001,practiceBlock,centre_mouse,22,545,reveal,Picture2.jpg,N_1.png,1,N_2.png,2,N_3.png,3,N_4.png,4,Y_1.png,1,Y_2.png,2,Y_3.png,3,Y_4.png,4,confidence.png,1,guessing.png,2,respond_yes.png,3,respond_no.png,4,Word 10 of 12,1,Image 3 of 3,1,reveal.png,5
2001,practiceBlock,practice_absent_trial,23,638,no_4,Picture2.jpg,N_1.png,1,N_2.png,2,N_3.png,3,N_4.png,4,Y_1.png,1,Y_2.png,2,Y_3.png,3,Y_4.png,4,confidence.png,1,guessing.png,2,respond_yes.png,3,respond_no.png,4,Word 11 of 12,1,Image 3 of 3,1,anxious,5
2001,practiceBlock,centre_mouse,24,283,reveal,Picture2.jpg,N_1.png,1,N_2.png,2,N_3.png,3,N_4.png,4,Y_1.png,1,Y_2.png,2,Y_3.png,3,Y_4.png,4,confidence.png,1,guessing.png,2,respond_yes.png,3,respond_no.png,4,Word 11 of 12,1,Image 3 of 3,1,reveal.png,5
2001,practiceBlock,practice_present_trial,25,555,no_4,Picture2.jpg,N_1.png,1,N_2.png,2,N_3.png,3,N_4.png,4,Y_1.png,1,Y_2.png,2,Y_3.png,3,Y_4.png,4,confidence.png,1,guessing.png,2,respond_yes.png,3,respond_no.png,4,Word 12 of 12,1,Image 3 of 3,1,happy,5
2001,practiceBlock,centre_mouse,26,274,reveal,Picture2.jpg,N_1.png,1,N_2.png,2,N_3.png,3,N_4.png,4,Y_1.png,1,Y_2.png,2,Y_3.png,3,Y_4.png,4,confidence.png,1,guessing.png,2,respond_yes.png,3,respond_no.png,4,Word 12 of 12,1,Image 3 of 3,1,reveal.png,5
2001,practiceBlock,catch_present_trial,27,760,yes_3,Picture2.jpg,N_1.png,1,N_2.png,2,N_3.png,3,N_4.png,4,Y_1.png,1,Y_2.png,2,Y_3.png,3,Y_4.png,4,confidence.png,1,guessing.png,2,respond_yes.png,3,respond_no.png,4,Word 12 of 12,1,Image 3 of 3,1,PRESS: Yes 3,3
2001,practiceBlock,centre_mouse,28,514,reveal,Picture2.jpg,N_1.png,1,N_2.png,2,N_3.png,3,N_4.png,4,Y_1.png,1,Y_2.png,2,Y_3.png,3,Y_4.png,4,confidence.png,1,guessing.png,2,respond_yes.png,3,respond_no.png,4,Word 12 of 12,1,Image 3 of 3,1,reveal.png,5
2001,practiceBlock,catch_absent_trial,29,1365,yes_1,Picture2.jpg,N_1.png,1,N_2.png,2,N_3.png,3,N_4.png,4,Y_1.png,1,Y_2.png,2,Y_3.png,3,Y_4.png,4,confidence.png,1,guessing.png,2,respond_yes.png,3,respond_no.png,4,Word 12 of 12,1,Image 3 of 3,1,PRESS: No 1,1
2001,practiceBlock,centre_mouse,30,353,reveal,Picture2.jpg,N_1.png,1,N_2.png,2,N_3.png,3,N_4.png,4,Y_1.png,1,Y_2.png,2,Y_3.png,3,Y_4.png,4,confidence.png,1,guessing.png,2,respond_yes.png,3,respond_no.png,4,Word 12 of 12,1,Image 3 of 3,1,reveal.png,5
2001,reset,reset,1,200,0,Picture2.jpg,0,0,0,0,0,0,0,0,0,0,0,0,0,0,0,0,0,0,0,0,0,0,0,0,0,0,0,0,0,0
2001,testBlock,test,1,0,0,im0000041.jpg,+,1,im0000041.jpg,1,mask4.jpg,4,mask3.jpg,3,mask5.jpg,5,mask5.jpg,5,mask3.jpg,3,0,0,0,0,0,0,0,0,0,0,0,0,0,0,0,0
2001,testBlock,centre_mouse,2,1118,reveal,im0000041.jpg,N_1.png,1,N_2.png,2,N_3.png,3,N_4.png,4,Y_1.png,1,Y_2.png,2,Y_3.png,3,Y_4.png,4,confidence.png,1,guessing.png,2,respond_yes.png,3,respond_no.png,4,Word 0 of 20,1,Image 1 of 5,1,reveal.png,5
2001,testBlock,present_trial,3,756,yes_4,im0000041.jpg,N_1.png,1,N_2.png,2,N_3.png,3,N_4.png,4,Y_1.png,1,Y_2.png,2,Y_3.png,3,Y_4.png,4,confidence.png,1,guessing.png,2,respond_yes.png,3,respond_no.png,4,Word 1 of 20,1,Image 1 of 5,1,pasture,3
2001,testBlock,centre_mouse,4,944,reveal,im0000041.jpg,N_1.png,1,N_2.png,2,N_3.png,3,N_4.png,4,Y_1.png,1,Y_2.png,2,Y_3.png,3,Y_4.png,4,confidence.png,1,guessing.png,2,respond_yes.png,3,respond_no.png,4,Word 1 of 20,1,Image 1 of 5,1,reveal.png,5
2001,testBlock,absent_trial,5,571,no_4,im0000041.jpg,N_1.png,1,N_2.png,2,N_3.png,3,N_4.png,4,Y_1.png,1,Y_2.png,2,Y_3.png,3,Y_4.png,4,confidence.png,1,guessing.png,2,respond_yes.png,3,respond_no.png,4,Word 2 of 20,1,Image 1 of 5,1,blanket,1
2001,testBlock,centre_mouse,6,249,reveal,im0000041.jpg,N_1.png,1,N_2.png,2,N_3.png,3,N_4.png,4,Y_1.png,1,Y_2.png,2,Y_3.png,3,Y_4.png,4,confidence.png,1,guessing.png,2,respond_yes.png,3,respond_no.png,4,Word 2 of 20,1,Image 1 of 5,1,reveal.png,5
2001,testBlock,absent_trial,7,726,yes_4,im0000041.jpg,N_1.png,1,N_2.png,2,N_3.png,3,N_4.png,4,Y_1.png,1,Y_2.png,2,Y_3.png,3,Y_4.png,4,confidence.png,1,guessing.png,2,respond_yes.png,3,respond_no.png,4,Word 3 of 20,1,Image 1 of 5,1,large,8
2001,testBlock,centre_mouse,8,451,reveal,im0000041.jpg,N_1.png,1,N_2.png,2,N_3.png,3,N_4.png,4,Y_1.png,1,Y_2.png,2,Y_3.png,3,Y_4.png,4,confidence.png,1,guessing.png,2,respond_yes.png,3,respond_no.png,4,Word 3 of 20,1,Image 1 of 5,1,reveal.png,5
2001,testBlock,absent_trial,9,601,yes_4,im0000041.jpg,N_1.png,1,N_2.png,2,N_3.png,3,N_4.png,4,Y_1.png,1,Y_2.png,2,Y_3.png,3,Y_4.png,4,confidence.png,1,guessing.png,2,respond_yes.png,3,respond_no.png,4,Word 4 of 20,1,Image 1 of 5,1,day,4
2001,testBlock,centre_mouse,10,219,reveal,im0000041.jpg,N_1.png,1,N_2.png,2,N_3.png,3,N_4.png,4,Y_1.png,1,Y_2.png,2,Y_3.png,3,Y_4.png,4,confidence.png,1,guessing.png,2,respond_yes.png,3,respond_no.png,4,Word 4 of 20,1,Image 1 of 5,1,reveal.png,5
2001,testBlock,absent_trial,11,554,no_4,im0000041.jpg,N_1.png,1,N_2.png,2,N_3.png,3,N_4.png,4,Y_1.png,1,Y_2.png,2,Y_3.png,3,Y_4.png,4,confidence.png,1,guessing.png,2,respond_yes.png,3,respond_no.png,4,Word 5 of 20,1,Image 1 of 5,1,explore,9
2001,testBlock,centre_mouse,12,499,reveal,im0000041.jpg,N_1.png,1,N_2.png,2,N_3.png,3,N_4.png,4,Y_1.png,1,Y_2.png,2,Y_3.png,3,Y_4.png,4,confidence.png,1,guessing.png,2,respond_yes.png,3,respond_no.png,4,Word 5 of 20,1,Image 1 of 5,1,reveal.png,5
2001,testBlock,present_trial,13,1792,no_1,im0000041.jpg,N_1.png,1,N_2.png,2,N_3.png,3,N_4.png,4,Y_1.png,1,Y_2.png,2,Y_3.png,3,Y_4.png,4,confidence.png,1,guessing.png,2,respond_yes.png,3,respond_no.png,4,Word 6 of 20,1,Image 1 of 5,1,water,9
2001,testBlock,centre_mouse,14,263,reveal,im0000041.jpg,N_1.png,1,N_2.png,2,N_3.png,3,N_4.png,4,Y_1.png,1,Y_2.png,2,Y_3.png,3,Y_4.png,4,confidence.png,1,guessing.png,2,respond_yes.png,3,respond_no.png,4,Word 6 of 20,1,Image 1 of 5,1,reveal.png,5
2001,testBlock,present_trial,15,756,no_1,im0000041.jpg,N_1.png,1,N_2.png,2,N_3.png,3,N_4.png,4,Y_1.png,1,Y_2.png,2,Y_3.png,3,Y_4.png,4,confidence.png,1,guessing.png,2,respond_yes.png,3,respond_no.png,4,Word 7 of 20,1,Image 1 of 5,1,fence,6
2001,testBlock,centre_mouse,16,1018,reveal,im0000041.jpg,N_1.png,1,N_2.png,2,N_3.png,3,N_4.png,4,Y_1.png,1,Y_2.png,2,Y_3.png,3,Y_4.png,4,confidence.png,1,guessing.png,2,respond_yes.png,3,respond_no.png,4,Word 7 of 20,1,Image 1 of 5,1,reveal.png,5
2001,testBlock,present_trial,17,1642,yes_4,im0000041.jpg,N_1.png,1,N_2.png,2,N_3.png,3,N_4.png,4,Y_1.png,1,Y_2.png,2,Y_3.png,3,Y_4.png,4,confidence.png,1,guessing.png,2,respond_yes.png,3,respond_no.png,4,Word 8 of 20,1,Image 1 of 5,1,horse,5
2001,testBlock,centre_mouse,18,249,reveal,im0000041.jpg,N_1.png,1,N_2.png,2,N_3.png,3,N_4.png,4,Y_1.png,1,Y_2.png,2,Y_3.png,3,Y_4.png,4,confidence.png,1,guessing.png,2,respond_yes.png,3,respond_no.png,4,Word 8 of 20,1,Image 1 of 5,1,reveal.png,5
2001,testBlock,catch_present_trial,19,867,yes_1,im0000041.jpg,N_1.png,1,N_2.png,2,N_3.png,3,N_4.png,4,Y_1.png,1,Y_2.png,2,Y_3.png,3,Y_4.png,4,confidence.png,1,guessing.png,2,respond_yes.png,3,respond_no.png,4,Word 8 of 20,1,Image 1 of 5,1,PRESS: Yes 1,1
2001,testBlock,centre_mouse,20,591,reveal,im0000041.jpg,N_1.png,1,N_2.png,2,N_3.png,3,N_4.png,4,Y_1.png,1,Y_2.png,2,Y_3.png,3,Y_4.png,4,confidence.png,1,guessing.png,2,respond_yes.png,3,respond_no.png,4,Word 8 of 20,1,Image 1 of 5,1,reveal.png,5
2001,testBlock,present_trial,21,683,yes_4,im0000041.jpg,N_1.png,1,N_2.png,2,N_3.png,3,N_4.png,4,Y_1.png,1,Y_2.png,2,Y_3.png,3,Y_4.png,4,confidence.png,1,guessing.png,2,respond_yes.png,3,respond_no.png,4,Word 9 of 20,1,Image 1 of 5,1,farm,4
2001,testBlock,centre_mouse,22,456,reveal,im0000041.jpg,N_1.png,1,N_2.png,2,N_3.png,3,N_4.png,4,Y_1.png,1,Y_2.png,2,Y_3.png,3,Y_4.png,4,confidence.png,1,guessing.png,2,respond_yes.png,3,respond_no.png,4,Word 9 of 20,1,Image 1 of 5,1,reveal.png,5
2001,testBlock,present_trial,23,2219,yes_4,im0000041.jpg,N_1.png,1,N_2.png,2,N_3.png,3,N_4.png,4,Y_1.png,1,Y_2.png,2,Y_3.png,3,Y_4.png,4,confidence.png,1,guessing.png,2,respond_yes.png,3,respond_no.png,4,Word 10 of 20,1,Image 1 of 5,1,outside,8
2001,testBlock,centre_mouse,24,431,reveal,im0000041.jpg,N_1.png,1,N_2.png,2,N_3.png,3,N_4.png,4,Y_1.png,1,Y_2.png,2,Y_3.png,3,Y_4.png,4,confidence.png,1,guessing.png,2,respond_yes.png,3,respond_no.png,4,Word 10 of 20,1,Image 1 of 5,1,reveal.png,5
2001,testBlock,absent_trial,25,661,no_4,im0000041.jpg,N_1.png,1,N_2.png,2,N_3.png,3,N_4.png,4,Y_1.png,1,Y_2.png,2,Y_3.png,3,Y_4.png,4,confidence.png,1,guessing.png,2,respond_yes.png,3,respond_no.png,4,Word 11 of 20,1,Image 1 of 5,1,line,6
2001,testBlock,centre_mouse,26,410,reveal,im0000041.jpg,N_1.png,1,N_2.png,2,N_3.png,3,N_4.png,4,Y_1.png,1,Y_2.png,2,Y_3.png,3,Y_4.png,4,confidence.png,1,guessing.png,2,respond_yes.png,3,respond_no.png,4,Word 11 of 20,1,Image 1 of 5,1,reveal.png,5
2001,testBlock,absent_trial,27,754,no_4,im0000041.jpg,N_1.png,1,N_2.png,2,N_3.png,3,N_4.png,4,Y_1.png,1,Y_2.png,2,Y_3.png,3,Y_4.png,4,confidence.png,1,guessing.png,2,respond_yes.png,3,respond_no.png,4,Word 12 of 20,1,Image 1 of 5,1,watercraft,10
2001,testBlock,centre_mouse,28,251,reveal,im0000041.jpg,N_1.png,1,N_2.png,2,N_3.png,3,N_4.png,4,Y_1.png,1,Y_2.png,2,Y_3.png,3,Y_4.png,4,confidence.png,1,guessing.png,2,respond_yes.png,3,respond_no.png,4,Word 12 of 20,1,Image 1 of 5,1,reveal.png,5
2001,testBlock,present_trial,29,601,no_4,im0000041.jpg,N_1.png,1,N_2.png,2,N_3.png,3,N_4.png,4,Y_1.png,1,Y_2.png,2,Y_3.png,3,Y_4.png,4,confidence.png,1,guessing.png,2,respond_yes.png,3,respond_no.png,4,Word 13 of 20,1,Image 1 of 5,1,grass,2
2001,testBlock,centre_mouse,30,299,reveal,im0000041.jpg,N_1.png,1,N_2.png,2,N_3.png,3,N_4.png,4,Y_1.png,1,Y_2.png,2,Y_3.png,3,Y_4.png,4,confidence.png,1,guessing.png,2,respond_yes.png,3,respond_no.png,4,Word 13 of 20,1,Image 1 of 5,1,reveal.png,5
2001,testBlock,absent_trial,31,632,no_4,im0000041.jpg,N_1.png,1,N_2.png,2,N_3.png,3,N_4.png,4,Y_1.png,1,Y_2.png,2,Y_3.png,3,Y_4.png,4,confidence.png,1,guessing.png,2,respond_yes.png,3,respond_no.png,4,Word 14 of 20,1,Image 1 of 5,1,wall,3
2001,testBlock,centre_mouse,32,237,reveal,im0000041.jpg,N_1.png,1,N_2.png,2,N_3.png,3,N_4.png,4,Y_1.png,1,Y_2.png,2,Y_3.png,3,Y_4.png,4,confidence.png,1,guessing.png,2,respond_yes.png,3,respond_no.png,4,Word 14 of 20,1,Image 1 of 5,1,reveal.png,5
2001,testBlock,absent_trial,33,487,no_4,im0000041.jpg,N_1.png,1,N_2.png,2,N_3.png,3,N_4.png,4,Y_1.png,1,Y_2.png,2,Y_3.png,3,Y_4.png,4,confidence.png,1,guessing.png,2,respond_yes.png,3,respond_no.png,4,Word 15 of 20,1,Image 1 of 5,1,child,7
2001,testBlock,centre_mouse,34,294,reveal,im0000041.jpg,N_1.png,1,N_2.png,2,N_3.png,3,N_4.png,4,Y_1.png,1,Y_2.png,2,Y_3.png,3,Y_4.png,4,confidence.png,1,guessing.png,2,respond_yes.png,3,respond_no.png,4,Word 15 of 20,1,Image 1 of 5,1,reveal.png,5
2001,testBlock,present_trial,35,1523,yes_3,im0000041.jpg,N_1.png,1,N_2.png,2,N_3.png,3,N_4.png,4,Y_1.png,1,Y_2.png,2,Y_3.png,3,Y_4.png,4,confidence.png,1,guessing.png,2,respond_yes.png,3,respond_no.png,4,Word 16 of 20,1,Image 1 of 5,1,sunny,7
2001,testBlock,centre_mouse,36,250,reveal,im0000041.jpg,N_1.png,1,N_2.png,2,N_3.png,3,N_4.png,4,Y_1.png,1,Y_2.png,2,Y_3.png,3,Y_4.png,4,confidence.png,1,guessing.png,2,respond_yes.png,3,respond_no.png,4,Word 16 of 20,1,Image 1 of 5,1,reveal.png,5
2001,testBlock,catch_absent_trial,37,793,yes_2,im0000041.jpg,N_1.png,1,N_2.png,2,N_3.png,3,N_4.png,4,Y_1.png,1,Y_2.png,2,Y_3.png,3,Y_4.png,4,confidence.png,1,guessing.png,2,respond_yes.png,3,respond_no.png,4,Word 16 of 20,1,Image 1 of 5,1,PRESS: No 2,2
2001,testBlock,centre_mouse,38,322,reveal,im0000041.jpg,N_1.png,1,N_2.png,2,N_3.png,3,N_4.png,4,Y_1.png,1,Y_2.png,2,Y_3.png,3,Y_4.png,4,confidence.png,1,guessing.png,2,respond_yes.png,3,respond_no.png,4,Word 16 of 20,1,Image 1 of 5,1,reveal.png,5
2001,testBlock,absent_trial,39,1179,no_4,im0000041.jpg,N_1.png,1,N_2.png,2,N_3.png,3,N_4.png,4,Y_1.png,1,Y_2.png,2,Y_3.png,3,Y_4.png,4,confidence.png,1,guessing.png,2,respond_yes.png,3,respond_no.png,4,Word 17 of 20,1,Image 1 of 5,1,dome,5
2001,testBlock,centre_mouse,40,260,reveal,im0000041.jpg,N_1.png,1,N_2.png,2,N_3.png,3,N_4.png,4,Y_1.png,1,Y_2.png,2,Y_3.png,3,Y_4.png,4,confidence.png,1,guessing.png,2,respond_yes.png,3,respond_no.png,4,Word 17 of 20,1,Image 1 of 5,1,reveal.png,5
2001,testBlock,present_trial,41,818,yes_4,im0000041.jpg,N_1.png,1,N_2.png,2,N_3.png,3,N_4.png,4,Y_1.png,1,Y_2.png,2,Y_3.png,3,Y_4.png,4,confidence.png,1,guessing.png,2,respond_yes.png,3,respond_no.png,4,Word 18 of 20,1,Image 1 of 5,1,cow,1
2001,testBlock,centre_mouse,42,223,reveal,im0000041.jpg,N_1.png,1,N_2.png,2,N_3.png,3,N_4.png,4,Y_1.png,1,Y_2.png,2,Y_3.png,3,Y_4.png,4,confidence.png,1,guessing.png,2,respond_yes.png,3,respond_no.png,4,Word 18 of 20,1,Image 1 of 5,1,reveal.png,5
2001,testBlock,present_trial,43,1420,yes_1,im0000041.jpg,N_1.png,1,N_2.png,2,N_3.png,3,N_4.png,4,Y_1.png,1,Y_2.png,2,Y_3.png,3,Y_4.png,4,confidence.png,1,guessing.png,2,respond_yes.png,3,respond_no.png,4,Word 19 of 20,1,Image 1 of 5,1,dirt,10
2001,testBlock,centre_mouse,44,313,reveal,im0000041.jpg,N_1.png,1,N_2.png,2,N_3.png,3,N_4.png,4,Y_1.png,1,Y_2.png,2,Y_3.png,3,Y_4.png,4,confidence.png,1,guessing.png,2,respond_yes.png,3,respond_no.png,4,Word 19 of 20,1,Image 1 of 5,1,reveal.png,5
2001,testBlock,absent_trial,45,785,no_4,im0000041.jpg,N_1.png,1,N_2.png,2,N_3.png,3,N_4.png,4,Y_1.png,1,Y_2.png,2,Y_3.png,3,Y_4.png,4,confidence.png,1,guessing.png,2,respond_yes.png,3,respond_no.png,4,Word 20 of 20,1,Image 1 of 5,1,crow,2
2001,testBlock,centre_mouse,46,236,reveal,im0000041.jpg,N_1.png,1,N_2.png,2,N_3.png,3,N_4.png,4,Y_1.png,1,Y_2.png,2,Y_3.png,3,Y_4.png,4,confidence.png,1,guessing.png,2,respond_yes.png,3,respond_no.png,4,Word 20 of 20,1,Image 1 of 5,1,reveal.png,5
2001,testBlock,test,1,0,0,im0000041.jpg,+,1,im0000050.jpg,2,mask2.jpg,2,mask2.jpg,2,mask1.jpg,1,mask3.jpg,3,mask5.jpg,5,0,0,0,0,0,0,0,0,0,0,0,0,0,0,0,0
2001,testBlock,centre_mouse,2,1670,reveal,im0000041.jpg,N_1.png,1,N_2.png,2,N_3.png,3,N_4.png,4,Y_1.png,1,Y_2.png,2,Y_3.png,3,Y_4.png,4,confidence.png,1,guessing.png,2,respond_yes.png,3,respond_no.png,4,Word 0 of 20,1,Image 2 of 5,1,reveal.png,5
2001,testBlock,absent_trial,3,805,no_4,im0000050.jpg,N_1.png,1,N_2.png,2,N_3.png,3,N_4.png,4,Y_1.png,1,Y_2.png,2,Y_3.png,3,Y_4.png,4,confidence.png,1,guessing.png,2,respond_yes.png,3,respond_no.png,4,Word 1 of 20,1,Image 2 of 5,1,water,8
2001,testBlock,centre_mouse,4,459,reveal,im0000050.jpg,N_1.png,1,N_2.png,2,N_3.png,3,N_4.png,4,Y_1.png,1,Y_2.png,2,Y_3.png,3,Y_4.png,4,confidence.png,1,guessing.png,2,respond_yes.png,3,respond_no.png,4,Word 1 of 20,1,Image 2 of 5,1,reveal.png,5
2001,testBlock,present_trial,5,925,yes_4,im0000050.jpg,N_1.png,1,N_2.png,2,N_3.png,3,N_4.png,4,Y_1.png,1,Y_2.png,2,Y_3.png,3,Y_4.png,4,confidence.png,1,guessing.png,2,respond_yes.png,3,respond_no.png,4,Word 2 of 20,1,Image 2 of 5,1,market,5
2001,testBlock,centre_mouse,6,301,reveal,im0000050.jpg,N_1.png,1,N_2.png,2,N_3.png,3,N_4.png,4,Y_1.png,1,Y_2.png,2,Y_3.png,3,Y_4.png,4,confidence.png,1,guessing.png,2,respond_yes.png,3,respond_no.png,4,Word 2 of 20,1,Image 2 of 5,1,reveal.png,5
2001,testBlock,absent_trial,7,771,yes_4,im0000050.jpg,N_1.png,1,N_2.png,2,N_3.png,3,N_4.png,4,Y_1.png,1,Y_2.png,2,Y_3.png,3,Y_4.png,4,confidence.png,1,guessing.png,2,respond_yes.png,3,respond_no.png,4,Word 3 of 20,1,Image 2 of 5,1,man,6
2001,testBlock,centre_mouse,8,296,reveal,im0000050.jpg,N_1.png,1,N_2.png,2,N_3.png,3,N_4.png,4,Y_1.png,1,Y_2.png,2,Y_3.png,3,Y_4.png,4,confidence.png,1,guessing.png,2,respond_yes.png,3,respond_no.png,4,Word 3 of 20,1,Image 2 of 5,1,reveal.png,5
2001,testBlock,present_trial,9,1317,yes_2,im0000050.jpg,N_1.png,1,N_2.png,2,N_3.png,3,N_4.png,4,Y_1.png,1,Y_2.png,2,Y_3.png,3,Y_4.png,4,confidence.png,1,guessing.png,2,respond_yes.png,3,respond_no.png,4,Word 4 of 20,1,Image 2 of 5,1,banana,10
2001,testBlock,centre_mouse,10,322,reveal,im0000050.jpg,N_1.png,1,N_2.png,2,N_3.png,3,N_4.png,4,Y_1.png,1,Y_2.png,2,Y_3.png,3,Y_4.png,4,confidence.png,1,guessing.png,2,respond_yes.png,3,respond_no.png,4,Word 4 of 20,1,Image 2 of 5,1,reveal.png,5
2001,testBlock,present_trial,11,1092,yes_4,im0000050.jpg,N_1.png,1,N_2.png,2,N_3.png,3,N_4.png,4,Y_1.png,1,Y_2.png,2,Y_3.png,3,Y_4.png,4,confidence.png,1,guessing.png,2,respond_yes.png,3,respond_no.png,4,Word 5 of 20,1,Image 2 of 5,1,man,1
2001,testBlock,centre_mouse,12,573,reveal,im0000050.jpg,N_1.png,1,N_2.png,2,N_3.png,3,N_4.png,4,Y_1.png,1,Y_2.png,2,Y_3.png,3,Y_4.png,4,confidence.png,1,guessing.png,2,respond_yes.png,3,respond_no.png,4,Word 5 of 20,1,Image 2 of 5,1,reveal.png,5
2001,testBlock,absent_trial,13,12629,no_1,im0000050.jpg,N_1.png,1,N_2.png,2,N_3.png,3,N_4.png,4,Y_1.png,1,Y_2.png,2,Y_3.png,3,Y_4.png,4,confidence.png,1,guessing.png,2,respond_yes.png,3,respond_no.png,4,Word 6 of 20,1,Image 2 of 5,1,bundle,7
2001,testBlock,centre_mouse,14,394,reveal,im0000050.jpg,N_1.png,1,N_2.png,2,N_3.png,3,N_4.png,4,Y_1.png,1,Y_2.png,2,Y_3.png,3,Y_4.png,4,confidence.png,1,guessing.png,2,respond_yes.png,3,respond_no.png,4,Word 6 of 20,1,Image 2 of 5,1,reveal.png,5
2001,testBlock,absent_trial,15,1176,no_2,im0000050.jpg,N_1.png,1,N_2.png,2,N_3.png,3,N_4.png,4,Y_1.png,1,Y_2.png,2,Y_3.png,3,Y_4.png,4,confidence.png,1,guessing.png,2,respond_yes.png,3,respond_no.png,4,Word 7 of 20,1,Image 2 of 5,1,grey-clothes,4
2001,testBlock,centre_mouse,16,431,reveal,im0000050.jpg,N_1.png,1,N_2.png,2,N_3.png,3,N_4.png,4,Y_1.png,1,Y_2.png,2,Y_3.png,3,Y_4.png,4,confidence.png,1,guessing.png,2,respond_yes.png,3,respond_no.png,4,Word 7 of 20,1,Image 2 of 5,1,reveal.png,5
2001,testBlock,present_trial,17,1428,no_2,im0000050.jpg,N_1.png,1,N_2.png,2,N_3.png,3,N_4.png,4,Y_1.png,1,Y_2.png,2,Y_3.png,3,Y_4.png,4,confidence.png,1,guessing.png,2,respond_yes.png,3,respond_no.png,4,Word 8 of 20,1,Image 2 of 5,1,purchase,9
2001,testBlock,centre_mouse,18,22639,reveal,im0000050.jpg,N_1.png,1,N_2.png,2,N_3.png,3,N_4.png,4,Y_1.png,1,Y_2.png,2,Y_3.png,3,Y_4.png,4,confidence.png,1,guessing.png,2,respond_yes.png,3,respond_no.png,4,Word 8 of 20,1,Image 2 of 5,1,reveal.png,5
2001,testBlock,catch_present_trial,19,1165,yes_4,im0000050.jpg,N_1.png,1,N_2.png,2,N_3.png,3,N_4.png,4,Y_1.png,1,Y_2.png,2,Y_3.png,3,Y_4.png,4,confidence.png,1,guessing.png,2,respond_yes.png,3,respond_no.png,4,Word 8 of 20,1,Image 2 of 5,1,PRESS: Yes 4,4
2001,testBlock,centre_mouse,20,272,reveal,im0000050.jpg,N_1.png,1,N_2.png,2,N_3.png,3,N_4.png,4,Y_1.png,1,Y_2.png,2,Y_3.png,3,Y_4.png,4,confidence.png,1,guessing.png,2,respond_yes.png,3,respond_no.png,4,Word 8 of 20,1,Image 2 of 5,1,reveal.png,5
2001,testBlock,absent_trial,21,3986,no_1,im0000050.jpg,N_1.png,1,N_2.png,2,N_3.png,3,N_4.png,4,Y_1.png,1,Y_2.png,2,Y_3.png,3,Y_4.png,4,confidence.png,1,guessing.png,2,respond_yes.png,3,respond_no.png,4,Word 9 of 20,1,Image 2 of 5,1,walk,1
2001,testBlock,centre_mouse,22,329,reveal,im0000050.jpg,N_1.png,1,N_2.png,2,N_3.png,3,N_4.png,4,Y_1.png,1,Y_2.png,2,Y_3.png,3,Y_4.png,4,confidence.png,1,guessing.png,2,respond_yes.png,3,respond_no.png,4,Word 9 of 20,1,Image 2 of 5,1,reveal.png,5
2001,testBlock,absent_trial,23,1012,no_3,im0000050.jpg,N_1.png,1,N_2.png,2,N_3.png,3,N_4.png,4,Y_1.png,1,Y_2.png,2,Y_3.png,3,Y_4.png,4,confidence.png,1,guessing.png,2,respond_yes.png,3,respond_no.png,4,Word 10 of 20,1,Image 2 of 5,1,anxious,5
2001,testBlock,centre_mouse,24,485,reveal,im0000050.jpg,N_1.png,1,N_2.png,2,N_3.png,3,N_4.png,4,Y_1.png,1,Y_2.png,2,Y_3.png,3,Y_4.png,4,confidence.png,1,guessing.png,2,respond_yes.png,3,respond_no.png,4,Word 10 of 20,1,Image 2 of 5,1,reveal.png,5
2001,testBlock,present_trial,25,1158,yes_2,im0000050.jpg,N_1.png,1,N_2.png,2,N_3.png,3,N_4.png,4,Y_1.png,1,Y_2.png,2,Y_3.png,3,Y_4.png,4,confidence.png,1,guessing.png,2,respond_yes.png,3,respond_no.png,4,Word 11 of 20,1,Image 2 of 5,1,orange,7
2001,testBlock,centre_mouse,26,419,reveal,im0000050.jpg,N_1.png,1,N_2.png,2,N_3.png,3,N_4.png,4,Y_1.png,1,Y_2.png,2,Y_3.png,3,Y_4.png,4,confidence.png,1,guessing.png,2,respond_yes.png,3,respond_no.png,4,Word 11 of 20,1,Image 2 of 5,1,reveal.png,5
2001,testBlock,present_trial,27,3386,yes_4,im0000050.jpg,N_1.png,1,N_2.png,2,N_3.png,3,N_4.png,4,Y_1.png,1,Y_2.png,2,Y_3.png,3,Y_4.png,4,confidence.png,1,guessing.png,2,respond_yes.png,3,respond_no.png,4,Word 12 of 20,1,Image 2 of 5,1,store,8
2001,testBlock,centre_mouse,28,492,reveal,im0000050.jpg,N_1.png,1,N_2.png,2,N_3.png,3,N_4.png,4,Y_1.png,1,Y_2.png,2,Y_3.png,3,Y_4.png,4,confidence.png,1,guessing.png,2,respond_yes.png,3,respond_no.png,4,Word 12 of 20,1,Image 2 of 5,1,reveal.png,5
2001,testBlock,absent_trial,29,1568,no_4,im0000050.jpg,N_1.png,1,N_2.png,2,N_3.png,3,N_4.png,4,Y_1.png,1,Y_2.png,2,Y_3.png,3,Y_4.png,4,confidence.png,1,guessing.png,2,respond_yes.png,3,respond_no.png,4,Word 13 of 20,1,Image 2 of 5,1,beauty,2
2001,testBlock,centre_mouse,30,467,reveal,im0000050.jpg,N_1.png,1,N_2.png,2,N_3.png,3,N_4.png,4,Y_1.png,1,Y_2.png,2,Y_3.png,3,Y_4.png,4,confidence.png,1,guessing.png,2,respond_yes.png,3,respond_no.png,4,Word 13 of 20,1,Image 2 of 5,1,reveal.png,5
2001,testBlock,absent_trial,31,1054,no_1,im0000050.jpg,N_1.png,1,N_2.png,2,N_3.png,3,N_4.png,4,Y_1.png,1,Y_2.png,2,Y_3.png,3,Y_4.png,4,confidence.png,1,guessing.png,2,respond_yes.png,3,respond_no.png,4,Word 14 of 20,1,Image 2 of 5,1,look,9
2001,testBlock,centre_mouse,32,557,reveal,im0000050.jpg,N_1.png,1,N_2.png,2,N_3.png,3,N_4.png,4,Y_1.png,1,Y_2.png,2,Y_3.png,3,Y_4.png,4,confidence.png,1,guessing.png,2,respond_yes.png,3,respond_no.png,4,Word 14 of 20,1,Image 2 of 5,1,reveal.png,5
2001,testBlock,present_trial,33,942,yes_2,im0000050.jpg,N_1.png,1,N_2.png,2,N_3.png,3,N_4.png,4,Y_1.png,1,Y_2.png,2,Y_3.png,3,Y_4.png,4,confidence.png,1,guessing.png,2,respond_yes.png,3,respond_no.png,4,Word 15 of 20,1,Image 2 of 5,1,apple,6
2001,testBlock,centre_mouse,34,285,reveal,im0000050.jpg,N_1.png,1,N_2.png,2,N_3.png,3,N_4.png,4,Y_1.png,1,Y_2.png,2,Y_3.png,3,Y_4.png,4,confidence.png,1,guessing.png,2,respond_yes.png,3,respond_no.png,4,Word 15 of 20,1,Image 2 of 5,1,reveal.png,5
2001,testBlock,present_trial,35,1206,yes_4,im0000050.jpg,N_1.png,1,N_2.png,2,N_3.png,3,N_4.png,4,Y_1.png,1,Y_2.png,2,Y_3.png,3,Y_4.png,4,confidence.png,1,guessing.png,2,respond_yes.png,3,respond_no.png,4,Word 16 of 20,1,Image 2 of 5,1,people,4
2001,testBlock,centre_mouse,36,555,reveal,im0000050.jpg,N_1.png,1,N_2.png,2,N_3.png,3,N_4.png,4,Y_1.png,1,Y_2.png,2,Y_3.png,3,Y_4.png,4,confidence.png,1,guessing.png,2,respond_yes.png,3,respond_no.png,4,Word 16 of 20,1,Image 2 of 5,1,reveal.png,5
2001,testBlock,catch_absent_trial,37,859,yes_1,im0000050.jpg,N_1.png,1,N_2.png,2,N_3.png,3,N_4.png,4,Y_1.png,1,Y_2.png,2,Y_3.png,3,Y_4.png,4,confidence.png,1,guessing.png,2,respond_yes.png,3,respond_no.png,4,Word 16 of 20,1,Image 2 of 5,1,PRESS: No 1,1
2001,testBlock,centre_mouse,38,523,reveal,im0000050.jpg,N_1.png,1,N_2.png,2,N_3.png,3,N_4.png,4,Y_1.png,1,Y_2.png,2,Y_3.png,3,Y_4.png,4,confidence.png,1,guessing.png,2,respond_yes.png,3,respond_no.png,4,Word 16 of 20,1,Image 2 of 5,1,reveal.png,5
2001,testBlock,present_trial,39,1834,yes_4,im0000050.jpg,N_1.png,1,N_2.png,2,N_3.png,3,N_4.png,4,Y_1.png,1,Y_2.png,2,Y_3.png,3,Y_4.png,4,confidence.png,1,guessing.png,2,respond_yes.png,3,respond_no.png,4,Word 17 of 20,1,Image 2 of 5,1,shop,3
2001,testBlock,centre_mouse,40,272,reveal,im0000050.jpg,N_1.png,1,N_2.png,2,N_3.png,3,N_4.png,4,Y_1.png,1,Y_2.png,2,Y_3.png,3,Y_4.png,4,confidence.png,1,guessing.png,2,respond_yes.png,3,respond_no.png,4,Word 17 of 20,1,Image 2 of 5,1,reveal.png,5
2001,testBlock,absent_trial,41,695,no_4,im0000050.jpg,N_1.png,1,N_2.png,2,N_3.png,3,N_4.png,4,Y_1.png,1,Y_2.png,2,Y_3.png,3,Y_4.png,4,confidence.png,1,guessing.png,2,respond_yes.png,3,respond_no.png,4,Word 18 of 20,1,Image 2 of 5,1,metal,3
2001,testBlock,centre_mouse,42,225,reveal,im0000050.jpg,N_1.png,1,N_2.png,2,N_3.png,3,N_4.png,4,Y_1.png,1,Y_2.png,2,Y_3.png,3,Y_4.png,4,confidence.png,1,guessing.png,2,respond_yes.png,3,respond_no.png,4,Word 18 of 20,1,Image 2 of 5,1,reveal.png,5
2001,testBlock,present_trial,43,627,yes_4,im0000050.jpg,N_1.png,1,N_2.png,2,N_3.png,3,N_4.png,4,Y_1.png,1,Y_2.png,2,Y_3.png,3,Y_4.png,4,confidence.png,1,guessing.png,2,respond_yes.png,3,respond_no.png,4,Word 19 of 20,1,Image 2 of 5,1,fruit,2
2001,testBlock,centre_mouse,44,1148,reveal,im0000050.jpg,N_1.png,1,N_2.png,2,N_3.png,3,N_4.png,4,Y_1.png,1,Y_2.png,2,Y_3.png,3,Y_4.png,4,confidence.png,1,guessing.png,2,respond_yes.png,3,respond_no.png,4,Word 19 of 20,1,Image 2 of 5,1,reveal.png,5
2001,testBlock,absent_trial,45,648,yes_4,im0000050.jpg,N_1.png,1,N_2.png,2,N_3.png,3,N_4.png,4,Y_1.png,1,Y_2.png,2,Y_3.png,3,Y_4.png,4,confidence.png,1,guessing.png,2,respond_yes.png,3,respond_no.png,4,Word 20 of 20,1,Image 2 of 5,1,person,10
2001,testBlock,centre_mouse,46,454,reveal,im0000050.jpg,N_1.png,1,N_2.png,2,N_3.png,3,N_4.png,4,Y_1.png,1,Y_2.png,2,Y_3.png,3,Y_4.png,4,confidence.png,1,guessing.png,2,respond_yes.png,3,respond_no.png,4,Word 20 of 20,1,Image 2 of 5,1,reveal.png,5
2001,testBlock,test,1,0,0,im0000050.jpg,+,1,im0000069.jpg,5,mask5.jpg,5,mask3.jpg,3,mask3.jpg,3,mask5.jpg,5,mask1.jpg,1,0,0,0,0,0,0,0,0,0,0,0,0,0,0,0,0
2001,testBlock,centre_mouse,2,1622,reveal,im0000050.jpg,N_1.png,1,N_2.png,2,N_3.png,3,N_4.png,4,Y_1.png,1,Y_2.png,2,Y_3.png,3,Y_4.png,4,confidence.png,1,guessing.png,2,respond_yes.png,3,respond_no.png,4,Word 0 of 20,1,Image 3 of 5,1,reveal.png,5
2001,testBlock,present_trial,3,1968,yes_1,im0000069.jpg,N_1.png,1,N_2.png,2,N_3.png,3,N_4.png,4,Y_1.png,1,Y_2.png,2,Y_3.png,3,Y_4.png,4,confidence.png,1,guessing.png,2,respond_yes.png,3,respond_no.png,4,Word 1 of 20,1,Image 3 of 5,1,chicago,10
2001,testBlock,centre_mouse,4,286,reveal,im0000069.jpg,N_1.png,1,N_2.png,2,N_3.png,3,N_4.png,4,Y_1.png,1,Y_2.png,2,Y_3.png,3,Y_4.png,4,confidence.png,1,guessing.png,2,respond_yes.png,3,respond_no.png,4,Word 1 of 20,1,Image 3 of 5,1,reveal.png,5
2001,testBlock,absent_trial,5,967,no_4,im0000069.jpg,N_1.png,1,N_2.png,2,N_3.png,3,N_4.png,4,Y_1.png,1,Y_2.png,2,Y_3.png,3,Y_4.png,4,confidence.png,1,guessing.png,2,respond_yes.png,3,respond_no.png,4,Word 2 of 20,1,Image 3 of 5,1,toy,6
2001,testBlock,centre_mouse,6,262,reveal,im0000069.jpg,N_1.png,1,N_2.png,2,N_3.png,3,N_4.png,4,Y_1.png,1,Y_2.png,2,Y_3.png,3,Y_4.png,4,confidence.png,1,guessing.png,2,respond_yes.png,3,respond_no.png,4,Word 2 of 20,1,Image 3 of 5,1,reveal.png,5
2001,testBlock,present_trial,7,1761,yes_4,im0000069.jpg,N_1.png,1,N_2.png,2,N_3.png,3,N_4.png,4,Y_1.png,1,Y_2.png,2,Y_3.png,3,Y_4.png,4,confidence.png,1,guessing.png,2,respond_yes.png,3,respond_no.png,4,Word 3 of 20,1,Image 3 of 5,1,city,5
2001,testBlock,centre_mouse,8,484,reveal,im0000069.jpg,N_1.png,1,N_2.png,2,N_3.png,3,N_4.png,4,Y_1.png,1,Y_2.png,2,Y_3.png,3,Y_4.png,4,confidence.png,1,guessing.png,2,respond_yes.png,3,respond_no.png,4,Word 3 of 20,1,Image 3 of 5,1,reveal.png,5
2001,testBlock,absent_trial,9,658,no_4,im0000069.jpg,N_1.png,1,N_2.png,2,N_3.png,3,N_4.png,4,Y_1.png,1,Y_2.png,2,Y_3.png,3,Y_4.png,4,confidence.png,1,guessing.png,2,respond_yes.png,3,respond_no.png,4,Word 4 of 20,1,Image 3 of 5,1,orange-color,1
2001,testBlock,centre_mouse,10,679,reveal,im0000069.jpg,N_1.png,1,N_2.png,2,N_3.png,3,N_4.png,4,Y_1.png,1,Y_2.png,2,Y_3.png,3,Y_4.png,4,confidence.png,1,guessing.png,2,respond_yes.png,3,respond_no.png,4,Word 4 of 20,1,Image 3 of 5,1,reveal.png,5
2001,testBlock,absent_trial,11,1563,yes_1,im0000069.jpg,N_1.png,1,N_2.png,2,N_3.png,3,N_4.png,4,Y_1.png,1,Y_2.png,2,Y_3.png,3,Y_4.png,4,confidence.png,1,guessing.png,2,respond_yes.png,3,respond_no.png,4,Word 5 of 20,1,Image 3 of 5,1,afternoon,5
2001,testBlock,centre_mouse,12,244,reveal,im0000069.jpg,N_1.png,1,N_2.png,2,N_3.png,3,N_4.png,4,Y_1.png,1,Y_2.png,2,Y_3.png,3,Y_4.png,4,confidence.png,1,guessing.png,2,respond_yes.png,3,respond_no.png,4,Word 5 of 20,1,Image 3 of 5,1,reveal.png,5
2001,testBlock,present_trial,13,865,yes_4,im0000069.jpg,N_1.png,1,N_2.png,2,N_3.png,3,N_4.png,4,Y_1.png,1,Y_2.png,2,Y_3.png,3,Y_4.png,4,confidence.png,1,guessing.png,2,respond_yes.png,3,respond_no.png,4,Word 6 of 20,1,Image 3 of 5,1,people,3
2001,testBlock,centre_mouse,14,203,reveal,im0000069.jpg,N_1.png,1,N_2.png,2,N_3.png,3,N_4.png,4,Y_1.png,1,Y_2.png,2,Y_3.png,3,Y_4.png,4,confidence.png,1,guessing.png,2,respond_yes.png,3,respond_no.png,4,Word 6 of 20,1,Image 3 of 5,1,reveal.png,5
2001,testBlock,present_trial,15,2125,no_1,im0000069.jpg,N_1.png,1,N_2.png,2,N_3.png,3,N_4.png,4,Y_1.png,1,Y_2.png,2,Y_3.png,3,Y_4.png,4,confidence.png,1,guessing.png,2,respond_yes.png,3,respond_no.png,4,Word 7 of 20,1,Image 3 of 5,1,walk,7
2001,testBlock,centre_mouse,16,555,reveal,im0000069.jpg,N_1.png,1,N_2.png,2,N_3.png,3,N_4.png,4,Y_1.png,1,Y_2.png,2,Y_3.png,3,Y_4.png,4,confidence.png,1,guessing.png,2,respond_yes.png,3,respond_no.png,4,Word 7 of 20,1,Image 3 of 5,1,reveal.png,5
2001,testBlock,absent_trial,17,1254,no_3,im0000069.jpg,N_1.png,1,N_2.png,2,N_3.png,3,N_4.png,4,Y_1.png,1,Y_2.png,2,Y_3.png,3,Y_4.png,4,confidence.png,1,guessing.png,2,respond_yes.png,3,respond_no.png,4,Word 8 of 20,1,Image 3 of 5,1,pencil,2
2001,testBlock,centre_mouse,18,543,reveal,im0000069.jpg,N_1.png,1,N_2.png,2,N_3.png,3,N_4.png,4,Y_1.png,1,Y_2.png,2,Y_3.png,3,Y_4.png,4,confidence.png,1,guessing.png,2,respond_yes.png,3,respond_no.png,4,Word 8 of 20,1,Image 3 of 5,1,reveal.png,5
2001,testBlock,catch_absent_trial,19,913,yes_2,im0000069.jpg,N_1.png,1,N_2.png,2,N_3.png,3,N_4.png,4,Y_1.png,1,Y_2.png,2,Y_3.png,3,Y_4.png,4,confidence.png,1,guessing.png,2,respond_yes.png,3,respond_no.png,4,Word 8 of 20,1,Image 3 of 5,1,PRESS: No 2,2
2001,testBlock,centre_mouse,20,236,reveal,im0000069.jpg,N_1.png,1,N_2.png,2,N_3.png,3,N_4.png,4,Y_1.png,1,Y_2.png,2,Y_3.png,3,Y_4.png,4,confidence.png,1,guessing.png,2,respond_yes.png,3,respond_no.png,4,Word 8 of 20,1,Image 3 of 5,1,reveal.png,5
2001,testBlock,present_trial,21,1437,yes_4,im0000069.jpg,N_1.png,1,N_2.png,2,N_3.png,3,N_4.png,4,Y_1.png,1,Y_2.png,2,Y_3.png,3,Y_4.png,4,confidence.png,1,guessing.png,2,respond_yes.png,3,respond_no.png,4,Word 9 of 20,1,Image 3 of 5,1,street,6
2001,testBlock,centre_mouse,22,286,reveal,im0000069.jpg,N_1.png,1,N_2.png,2,N_3.png,3,N_4.png,4,Y_1.png,1,Y_2.png,2,Y_3.png,3,Y_4.png,4,confidence.png,1,guessing.png,2,respond_yes.png,3,respond_no.png,4,Word 9 of 20,1,Image 3 of 5,1,reveal.png,5
2001,testBlock,present_trial,23,1044,no_1,im0000069.jpg,N_1.png,1,N_2.png,2,N_3.png,3,N_4.png,4,Y_1.png,1,Y_2.png,2,Y_3.png,3,Y_4.png,4,confidence.png,1,guessing.png,2,respond_yes.png,3,respond_no.png,4,Word 10 of 20,1,Image 3 of 5,1,art,9
2001,testBlock,centre_mouse,24,483,reveal,im0000069.jpg,N_1.png,1,N_2.png,2,N_3.png,3,N_4.png,4,Y_1.png,1,Y_2.png,2,Y_3.png,3,Y_4.png,4,confidence.png,1,guessing.png,2,respond_yes.png,3,respond_no.png,4,Word 10 of 20,1,Image 3 of 5,1,reveal.png,5
2001,testBlock,present_trial,25,1842,yes_2,im0000069.jpg,N_1.png,1,N_2.png,2,N_3.png,3,N_4.png,4,Y_1.png,1,Y_2.png,2,Y_3.png,3,Y_4.png,4,confidence.png,1,guessing.png,2,respond_yes.png,3,respond_no.png,4,Word 11 of 20,1,Image 3 of 5,1,couple,4
2001,testBlock,centre_mouse,26,474,reveal,im0000069.jpg,N_1.png,1,N_2.png,2,N_3.png,3,N_4.png,4,Y_1.png,1,Y_2.png,2,Y_3.png,3,Y_4.png,4,confidence.png,1,guessing.png,2,respond_yes.png,3,respond_no.png,4,Word 11 of 20,1,Image 3 of 5,1,reveal.png,5
2001,testBlock,absent_trial,27,3832,yes_4,im0000069.jpg,N_1.png,1,N_2.png,2,N_3.png,3,N_4.png,4,Y_1.png,1,Y_2.png,2,Y_3.png,3,Y_4.png,4,confidence.png,1,guessing.png,2,respond_yes.png,3,respond_no.png,4,Word 12 of 20,1,Image 3 of 5,1,person,10
2001,testBlock,centre_mouse,28,334,reveal,im0000069.jpg,N_1.png,1,N_2.png,2,N_3.png,3,N_4.png,4,Y_1.png,1,Y_2.png,2,Y_3.png,3,Y_4.png,4,confidence.png,1,guessing.png,2,respond_yes.png,3,respond_no.png,4,Word 12 of 20,1,Image 3 of 5,1,reveal.png,5
2001,testBlock,absent_trial,29,1290,no_1,im0000069.jpg,N_1.png,1,N_2.png,2,N_3.png,3,N_4.png,4,Y_1.png,1,Y_2.png,2,Y_3.png,3,Y_4.png,4,confidence.png,1,guessing.png,2,respond_yes.png,3,respond_no.png,4,Word 13 of 20,1,Image 3 of 5,1,black-children,4
2001,testBlock,centre_mouse,30,276,reveal,im0000069.jpg,N_1.png,1,N_2.png,2,N_3.png,3,N_4.png,4,Y_1.png,1,Y_2.png,2,Y_3.png,3,Y_4.png,4,confidence.png,1,guessing.png,2,respond_yes.png,3,respond_no.png,4,Word 13 of 20,1,Image 3 of 5,1,reveal.png,5
2001,testBlock,absent_trial,31,1527,no_2,im0000069.jpg,N_1.png,1,N_2.png,2,N_3.png,3,N_4.png,4,Y_1.png,1,Y_2.png,2,Y_3.png,3,Y_4.png,4,confidence.png,1,guessing.png,2,respond_yes.png,3,respond_no.png,4,Word 14 of 20,1,Image 3 of 5,1,animal,3
2001,testBlock,centre_mouse,32,230,reveal,im0000069.jpg,N_1.png,1,N_2.png,2,N_3.png,3,N_4.png,4,Y_1.png,1,Y_2.png,2,Y_3.png,3,Y_4.png,4,confidence.png,1,guessing.png,2,respond_yes.png,3,respond_no.png,4,Word 14 of 20,1,Image 3 of 5,1,reveal.png,5
2001,testBlock,absent_trial,33,1259,yes_4,im0000069.jpg,N_1.png,1,N_2.png,2,N_3.png,3,N_4.png,4,Y_1.png,1,Y_2.png,2,Y_3.png,3,Y_4.png,4,confidence.png,1,guessing.png,2,respond_yes.png,3,respond_no.png,4,Word 15 of 20,1,Image 3 of 5,1,city,9
2001,testBlock,centre_mouse,34,245,reveal,im0000069.jpg,N_1.png,1,N_2.png,2,N_3.png,3,N_4.png,4,Y_1.png,1,Y_2.png,2,Y_3.png,3,Y_4.png,4,confidence.png,1,guessing.png,2,respond_yes.png,3,respond_no.png,4,Word 15 of 20,1,Image 3 of 5,1,reveal.png,5
2001,testBlock,present_trial,35,821,yes_4,im0000069.jpg,N_1.png,1,N_2.png,2,N_3.png,3,N_4.png,4,Y_1.png,1,Y_2.png,2,Y_3.png,3,Y_4.png,4,confidence.png,1,guessing.png,2,respond_yes.png,3,respond_no.png,4,Word 16 of 20,1,Image 3 of 5,1,man,8
2001,testBlock,centre_mouse,36,458,reveal,im0000069.jpg,N_1.png,1,N_2.png,2,N_3.png,3,N_4.png,4,Y_1.png,1,Y_2.png,2,Y_3.png,3,Y_4.png,4,confidence.png,1,guessing.png,2,respond_yes.png,3,respond_no.png,4,Word 16 of 20,1,Image 3 of 5,1,reveal.png,5
2001,testBlock,catch_absent_trial,37,821,yes_3,im0000069.jpg,N_1.png,1,N_2.png,2,N_3.png,3,N_4.png,4,Y_1.png,1,Y_2.png,2,Y_3.png,3,Y_4.png,4,confidence.png,1,guessing.png,2,respond_yes.png,3,respond_no.png,4,Word 16 of 20,1,Image 3 of 5,1,PRESS: No 3,3
2001,testBlock,centre_mouse,38,541,reveal,im0000069.jpg,N_1.png,1,N_2.png,2,N_3.png,3,N_4.png,4,Y_1.png,1,Y_2.png,2,Y_3.png,3,Y_4.png,4,confidence.png,1,guessing.png,2,respond_yes.png,3,respond_no.png,4,Word 16 of 20,1,Image 3 of 5,1,reveal.png,5
2001,testBlock,present_trial,39,7101,no_1,im0000069.jpg,N_1.png,1,N_2.png,2,N_3.png,3,N_4.png,4,Y_1.png,1,Y_2.png,2,Y_3.png,3,Y_4.png,4,confidence.png,1,guessing.png,2,respond_yes.png,3,respond_no.png,4,Word 17 of 20,1,Image 3 of 5,1,love,1
2001,testBlock,centre_mouse,40,445,reveal,im0000069.jpg,N_1.png,1,N_2.png,2,N_3.png,3,N_4.png,4,Y_1.png,1,Y_2.png,2,Y_3.png,3,Y_4.png,4,confidence.png,1,guessing.png,2,respond_yes.png,3,respond_no.png,4,Word 17 of 20,1,Image 3 of 5,1,reveal.png,5
2001,testBlock,absent_trial,41,716,no_1,im0000069.jpg,N_1.png,1,N_2.png,2,N_3.png,3,N_4.png,4,Y_1.png,1,Y_2.png,2,Y_3.png,3,Y_4.png,4,confidence.png,1,guessing.png,2,respond_yes.png,3,respond_no.png,4,Word 18 of 20,1,Image 3 of 5,1,grey-and-white,8
2001,testBlock,centre_mouse,42,277,reveal,im0000069.jpg,N_1.png,1,N_2.png,2,N_3.png,3,N_4.png,4,Y_1.png,1,Y_2.png,2,Y_3.png,3,Y_4.png,4,confidence.png,1,guessing.png,2,respond_yes.png,3,respond_no.png,4,Word 18 of 20,1,Image 3 of 5,1,reveal.png,5
2001,testBlock,absent_trial,43,909,no_1,im0000069.jpg,N_1.png,1,N_2.png,2,N_3.png,3,N_4.png,4,Y_1.png,1,Y_2.png,2,Y_3.png,3,Y_4.png,4,confidence.png,1,guessing.png,2,respond_yes.png,3,respond_no.png,4,Word 19 of 20,1,Image 3 of 5,1,green,7
2001,testBlock,centre_mouse,44,261,reveal,im0000069.jpg,N_1.png,1,N_2.png,2,N_3.png,3,N_4.png,4,Y_1.png,1,Y_2.png,2,Y_3.png,3,Y_4.png,4,confidence.png,1,guessing.png,2,respond_yes.png,3,respond_no.png,4,Word 19 of 20,1,Image 3 of 5,1,reveal.png,5
2001,testBlock,present_trial,45,1109,yes_4,im0000069.jpg,N_1.png,1,N_2.png,2,N_3.png,3,N_4.png,4,Y_1.png,1,Y_2.png,2,Y_3.png,3,Y_4.png,4,confidence.png,1,guessing.png,2,respond_yes.png,3,respond_no.png,4,Word 20 of 20,1,Image 3 of 5,1,statue,2
2001,testBlock,centre_mouse,46,222,reveal,im0000069.jpg,N_1.png,1,N_2.png,2,N_3.png,3,N_4.png,4,Y_1.png,1,Y_2.png,2,Y_3.png,3,Y_4.png,4,confidence.png,1,guessing.png,2,respond_yes.png,3,respond_no.png,4,Word 20 of 20,1,Image 3 of 5,1,reveal.png,5
2001,testBlock,test,1,0,0,im0000069.jpg,+,1,im0000056.jpg,3,mask2.jpg,2,mask2.jpg,2,mask4.jpg,4,mask3.jpg,3,mask4.jpg,4,0,0,0,0,0,0,0,0,0,0,0,0,0,0,0,0
2001,testBlock,centre_mouse,2,818,reveal,im0000069.jpg,N_1.png,1,N_2.png,2,N_3.png,3,N_4.png,4,Y_1.png,1,Y_2.png,2,Y_3.png,3,Y_4.png,4,confidence.png,1,guessing.png,2,respond_yes.png,3,respond_no.png,4,Word 0 of 20,1,Image 4 of 5,1,reveal.png,5
2001,testBlock,absent_trial,3,1671,yes_1,im0000056.jpg,N_1.png,1,N_2.png,2,N_3.png,3,N_4.png,4,Y_1.png,1,Y_2.png,2,Y_3.png,3,Y_4.png,4,confidence.png,1,guessing.png,2,respond_yes.png,3,respond_no.png,4,Word 1 of 20,1,Image 4 of 5,1,sunlight,9
2001,testBlock,centre_mouse,4,478,reveal,im0000056.jpg,N_1.png,1,N_2.png,2,N_3.png,3,N_4.png,4,Y_1.png,1,Y_2.png,2,Y_3.png,3,Y_4.png,4,confidence.png,1,guessing.png,2,respond_yes.png,3,respond_no.png,4,Word 1 of 20,1,Image 4 of 5,1,reveal.png,5
2001,testBlock,present_trial,5,705,yes_4,im0000056.jpg,N_1.png,1,N_2.png,2,N_3.png,3,N_4.png,4,Y_1.png,1,Y_2.png,2,Y_3.png,3,Y_4.png,4,confidence.png,1,guessing.png,2,respond_yes.png,3,respond_no.png,4,Word 2 of 20,1,Image 4 of 5,1,building,1
2001,testBlock,centre_mouse,6,207,reveal,im0000056.jpg,N_1.png,1,N_2.png,2,N_3.png,3,N_4.png,4,Y_1.png,1,Y_2.png,2,Y_3.png,3,Y_4.png,4,confidence.png,1,guessing.png,2,respond_yes.png,3,respond_no.png,4,Word 2 of 20,1,Image 4 of 5,1,reveal.png,5
2001,testBlock,present_trial,7,996,no_4,im0000056.jpg,N_1.png,1,N_2.png,2,N_3.png,3,N_4.png,4,Y_1.png,1,Y_2.png,2,Y_3.png,3,Y_4.png,4,confidence.png,1,guessing.png,2,respond_yes.png,3,respond_no.png,4,Word 3 of 20,1,Image 4 of 5,1,tree,8
2001,testBlock,centre_mouse,8,435,reveal,im0000056.jpg,N_1.png,1,N_2.png,2,N_3.png,3,N_4.png,4,Y_1.png,1,Y_2.png,2,Y_3.png,3,Y_4.png,4,confidence.png,1,guessing.png,2,respond_yes.png,3,respond_no.png,4,Word 3 of 20,1,Image 4 of 5,1,reveal.png,5
2001,testBlock,present_trial,9,792,yes_4,im0000056.jpg,N_1.png,1,N_2.png,2,N_3.png,3,N_4.png,4,Y_1.png,1,Y_2.png,2,Y_3.png,3,Y_4.png,4,confidence.png,1,guessing.png,2,respond_yes.png,3,respond_no.png,4,Word 4 of 20,1,Image 4 of 5,1,water,3
2001,testBlock,centre_mouse,10,412,reveal,im0000056.jpg,N_1.png,1,N_2.png,2,N_3.png,3,N_4.png,4,Y_1.png,1,Y_2.png,2,Y_3.png,3,Y_4.png,4,confidence.png,1,guessing.png,2,respond_yes.png,3,respond_no.png,4,Word 4 of 20,1,Image 4 of 5,1,reveal.png,5
2001,testBlock,absent_trial,11,1461,no_4,im0000056.jpg,N_1.png,1,N_2.png,2,N_3.png,3,N_4.png,4,Y_1.png,1,Y_2.png,2,Y_3.png,3,Y_4.png,4,confidence.png,1,guessing.png,2,respond_yes.png,3,respond_no.png,4,Word 5 of 20,1,Image 4 of 5,1,old,4
2001,testBlock,centre_mouse,12,202,reveal,im0000056.jpg,N_1.png,1,N_2.png,2,N_3.png,3,N_4.png,4,Y_1.png,1,Y_2.png,2,Y_3.png,3,Y_4.png,4,confidence.png,1,guessing.png,2,respond_yes.png,3,respond_no.png,4,Word 5 of 20,1,Image 4 of 5,1,reveal.png,5
2001,testBlock,absent_trial,13,928,no_4,im0000056.jpg,N_1.png,1,N_2.png,2,N_3.png,3,N_4.png,4,Y_1.png,1,Y_2.png,2,Y_3.png,3,Y_4.png,4,confidence.png,1,guessing.png,2,respond_yes.png,3,respond_no.png,4,Word 6 of 20,1,Image 4 of 5,1,jarchee,10
2001,testBlock,centre_mouse,14,225,reveal,im0000056.jpg,N_1.png,1,N_2.png,2,N_3.png,3,N_4.png,4,Y_1.png,1,Y_2.png,2,Y_3.png,3,Y_4.png,4,confidence.png,1,guessing.png,2,respond_yes.png,3,respond_no.png,4,Word 6 of 20,1,Image 4 of 5,1,reveal.png,5
2001,testBlock,absent_trial,15,812,no_4,im0000056.jpg,N_1.png,1,N_2.png,2,N_3.png,3,N_4.png,4,Y_1.png,1,Y_2.png,2,Y_3.png,3,Y_4.png,4,confidence.png,1,guessing.png,2,respond_yes.png,3,respond_no.png,4,Word 7 of 20,1,Image 4 of 5,1,horse,2
2001,testBlock,centre_mouse,16,188,reveal,im0000056.jpg,N_1.png,1,N_2.png,2,N_3.png,3,N_4.png,4,Y_1.png,1,Y_2.png,2,Y_3.png,3,Y_4.png,4,confidence.png,1,guessing.png,2,respond_yes.png,3,respond_no.png,4,Word 7 of 20,1,Image 4 of 5,1,reveal.png,5
2001,testBlock,present_trial,17,1347,no_1,im0000056.jpg,N_1.png,1,N_2.png,2,N_3.png,3,N_4.png,4,Y_1.png,1,Y_2.png,2,Y_3.png,3,Y_4.png,4,confidence.png,1,guessing.png,2,respond_yes.png,3,respond_no.png,4,Word 8 of 20,1,Image 4 of 5,1,people,5
2001,testBlock,centre_mouse,18,548,reveal,im0000056.jpg,N_1.png,1,N_2.png,2,N_3.png,3,N_4.png,4,Y_1.png,1,Y_2.png,2,Y_3.png,3,Y_4.png,4,confidence.png,1,guessing.png,2,respond_yes.png,3,respond_no.png,4,Word 8 of 20,1,Image 4 of 5,1,reveal.png,5
2001,testBlock,catch_absent_trial,19,926,yes_4,im0000056.jpg,N_1.png,1,N_2.png,2,N_3.png,3,N_4.png,4,Y_1.png,1,Y_2.png,2,Y_3.png,3,Y_4.png,4,confidence.png,1,guessing.png,2,respond_yes.png,3,respond_no.png,4,Word 8 of 20,1,Image 4 of 5,1,PRESS: No 4,4
2001,testBlock,centre_mouse,20,214,reveal,im0000056.jpg,N_1.png,1,N_2.png,2,N_3.png,3,N_4.png,4,Y_1.png,1,Y_2.png,2,Y_3.png,3,Y_4.png,4,confidence.png,1,guessing.png,2,respond_yes.png,3,respond_no.png,4,Word 8 of 20,1,Image 4 of 5,1,reveal.png,5
2001,testBlock,absent_trial,21,1545,no_1,im0000056.jpg,N_1.png,1,N_2.png,2,N_3.png,3,N_4.png,4,Y_1.png,1,Y_2.png,2,Y_3.png,3,Y_4.png,4,confidence.png,1,guessing.png,2,respond_yes.png,3,respond_no.png,4,Word 9 of 20,1,Image 4 of 5,1,stand,5
2001,testBlock,centre_mouse,22,526,reveal,im0000056.jpg,N_1.png,1,N_2.png,2,N_3.png,3,N_4.png,4,Y_1.png,1,Y_2.png,2,Y_3.png,3,Y_4.png,4,confidence.png,1,guessing.png,2,respond_yes.png,3,respond_no.png,4,Word 9 of 20,1,Image 4 of 5,1,reveal.png,5
2001,testBlock,absent_trial,23,2800,no_4,im0000056.jpg,N_1.png,1,N_2.png,2,N_3.png,3,N_4.png,4,Y_1.png,1,Y_2.png,2,Y_3.png,3,Y_4.png,4,confidence.png,1,guessing.png,2,respond_yes.png,3,respond_no.png,4,Word 10 of 20,1,Image 4 of 5,1,country,7
2001,testBlock,centre_mouse,24,532,reveal,im0000056.jpg,N_1.png,1,N_2.png,2,N_3.png,3,N_4.png,4,Y_1.png,1,Y_2.png,2,Y_3.png,3,Y_4.png,4,confidence.png,1,guessing.png,2,respond_yes.png,3,respond_no.png,4,Word 10 of 20,1,Image 4 of 5,1,reveal.png,5
2001,testBlock,present_trial,25,686,yes_4,im0000056.jpg,N_1.png,1,N_2.png,2,N_3.png,3,N_4.png,4,Y_1.png,1,Y_2.png,2,Y_3.png,3,Y_4.png,4,confidence.png,1,guessing.png,2,respond_yes.png,3,respond_no.png,4,Word 11 of 20,1,Image 4 of 5,1,city,2
2001,testBlock,centre_mouse,26,294,reveal,im0000056.jpg,N_1.png,1,N_2.png,2,N_3.png,3,N_4.png,4,Y_1.png,1,Y_2.png,2,Y_3.png,3,Y_4.png,4,confidence.png,1,guessing.png,2,respond_yes.png,3,respond_no.png,4,Word 11 of 20,1,Image 4 of 5,1,reveal.png,5
2001,testBlock,absent_trial,27,2729,no_1,im0000056.jpg,N_1.png,1,N_2.png,2,N_3.png,3,N_4.png,4,Y_1.png,1,Y_2.png,2,Y_3.png,3,Y_4.png,4,confidence.png,1,guessing.png,2,respond_yes.png,3,respond_no.png,4,Word 12 of 20,1,Image 4 of 5,1,zoomed-in,1
2001,testBlock,centre_mouse,28,644,reveal,im0000056.jpg,N_1.png,1,N_2.png,2,N_3.png,3,N_4.png,4,Y_1.png,1,Y_2.png,2,Y_3.png,3,Y_4.png,4,confidence.png,1,guessing.png,2,respond_yes.png,3,respond_no.png,4,Word 12 of 20,1,Image 4 of 5,1,reveal.png,5
2001,testBlock,present_trial,29,2058,no_1,im0000056.jpg,N_1.png,1,N_2.png,2,N_3.png,3,N_4.png,4,Y_1.png,1,Y_2.png,2,Y_3.png,3,Y_4.png,4,confidence.png,1,guessing.png,2,respond_yes.png,3,respond_no.png,4,Word 13 of 20,1,Image 4 of 5,1,sea,6
2001,testBlock,centre_mouse,30,258,reveal,im0000056.jpg,N_1.png,1,N_2.png,2,N_3.png,3,N_4.png,4,Y_1.png,1,Y_2.png,2,Y_3.png,3,Y_4.png,4,confidence.png,1,guessing.png,2,respond_yes.png,3,respond_no.png,4,Word 13 of 20,1,Image 4 of 5,1,reveal.png,5
2001,testBlock,present_trial,31,994,yes_4,im0000056.jpg,N_1.png,1,N_2.png,2,N_3.png,3,N_4.png,4,Y_1.png,1,Y_2.png,2,Y_3.png,3,Y_4.png,4,confidence.png,1,guessing.png,2,respond_yes.png,3,respond_no.png,4,Word 14 of 20,1,Image 4 of 5,1,skyline,10
2001,testBlock,centre_mouse,32,228,reveal,im0000056.jpg,N_1.png,1,N_2.png,2,N_3.png,3,N_4.png,4,Y_1.png,1,Y_2.png,2,Y_3.png,3,Y_4.png,4,confidence.png,1,guessing.png,2,respond_yes.png,3,respond_no.png,4,Word 14 of 20,1,Image 4 of 5,1,reveal.png,5
2001,testBlock,present_trial,33,599,yes_4,im0000056.jpg,N_1.png,1,N_2.png,2,N_3.png,3,N_4.png,4,Y_1.png,1,Y_2.png,2,Y_3.png,3,Y_4.png,4,confidence.png,1,guessing.png,2,respond_yes.png,3,respond_no.png,4,Word 15 of 20,1,Image 4 of 5,1,build,4
2001,testBlock,centre_mouse,34,458,reveal,im0000056.jpg,N_1.png,1,N_2.png,2,N_3.png,3,N_4.png,4,Y_1.png,1,Y_2.png,2,Y_3.png,3,Y_4.png,4,confidence.png,1,guessing.png,2,respond_yes.png,3,respond_no.png,4,Word 15 of 20,1,Image 4 of 5,1,reveal.png,5
2001,testBlock,absent_trial,35,1280,no_1,im0000056.jpg,N_1.png,1,N_2.png,2,N_3.png,3,N_4.png,4,Y_1.png,1,Y_2.png,2,Y_3.png,3,Y_4.png,4,confidence.png,1,guessing.png,2,respond_yes.png,3,respond_no.png,4,Word 16 of 20,1,Image 4 of 5,1,boy,8
2001,testBlock,centre_mouse,36,251,reveal,im0000056.jpg,N_1.png,1,N_2.png,2,N_3.png,3,N_4.png,4,Y_1.png,1,Y_2.png,2,Y_3.png,3,Y_4.png,4,confidence.png,1,guessing.png,2,respond_yes.png,3,respond_no.png,4,Word 16 of 20,1,Image 4 of 5,1,reveal.png,5
2001,testBlock,catch_absent_trial,37,774,yes_4,im0000056.jpg,N_1.png,1,N_2.png,2,N_3.png,3,N_4.png,4,Y_1.png,1,Y_2.png,2,Y_3.png,3,Y_4.png,4,confidence.png,1,guessing.png,2,respond_yes.png,3,respond_no.png,4,Word 16 of 20,1,Image 4 of 5,1,PRESS: No 4,4
2001,testBlock,centre_mouse,38,486,reveal,im0000056.jpg,N_1.png,1,N_2.png,2,N_3.png,3,N_4.png,4,Y_1.png,1,Y_2.png,2,Y_3.png,3,Y_4.png,4,confidence.png,1,guessing.png,2,respond_yes.png,3,respond_no.png,4,Word 16 of 20,1,Image 4 of 5,1,reveal.png,5
2001,testBlock,present_trial,39,875,yes_4,im0000056.jpg,N_1.png,1,N_2.png,2,N_3.png,3,N_4.png,4,Y_1.png,1,Y_2.png,2,Y_3.png,3,Y_4.png,4,confidence.png,1,guessing.png,2,respond_yes.png,3,respond_no.png,4,Word 17 of 20,1,Image 4 of 5,1,sky,7
2001,testBlock,centre_mouse,40,493,reveal,im0000056.jpg,N_1.png,1,N_2.png,2,N_3.png,3,N_4.png,4,Y_1.png,1,Y_2.png,2,Y_3.png,3,Y_4.png,4,confidence.png,1,guessing.png,2,respond_yes.png,3,respond_no.png,4,Word 17 of 20,1,Image 4 of 5,1,reveal.png,5
2001,testBlock,present_trial,41,792,yes_4,im0000056.jpg,N_1.png,1,N_2.png,2,N_3.png,3,N_4.png,4,Y_1.png,1,Y_2.png,2,Y_3.png,3,Y_4.png,4,confidence.png,1,guessing.png,2,respond_yes.png,3,respond_no.png,4,Word 18 of 20,1,Image 4 of 5,1,daytime,9
2001,testBlock,centre_mouse,42,975,reveal,im0000056.jpg,N_1.png,1,N_2.png,2,N_3.png,3,N_4.png,4,Y_1.png,1,Y_2.png,2,Y_3.png,3,Y_4.png,4,confidence.png,1,guessing.png,2,respond_yes.png,3,respond_no.png,4,Word 18 of 20,1,Image 4 of 5,1,reveal.png,5
2001,testBlock,absent_trial,43,933,no_4,im0000056.jpg,N_1.png,1,N_2.png,2,N_3.png,3,N_4.png,4,Y_1.png,1,Y_2.png,2,Y_3.png,3,Y_4.png,4,confidence.png,1,guessing.png,2,respond_yes.png,3,respond_no.png,4,Word 19 of 20,1,Image 4 of 5,1,coat,3
2001,testBlock,centre_mouse,44,244,reveal,im0000056.jpg,N_1.png,1,N_2.png,2,N_3.png,3,N_4.png,4,Y_1.png,1,Y_2.png,2,Y_3.png,3,Y_4.png,4,confidence.png,1,guessing.png,2,respond_yes.png,3,respond_no.png,4,Word 19 of 20,1,Image 4 of 5,1,reveal.png,5
2001,testBlock,absent_trial,45,1823,no_4,im0000056.jpg,N_1.png,1,N_2.png,2,N_3.png,3,N_4.png,4,Y_1.png,1,Y_2.png,2,Y_3.png,3,Y_4.png,4,confidence.png,1,guessing.png,2,respond_yes.png,3,respond_no.png,4,Word 20 of 20,1,Image 4 of 5,1,blue-hat,6
2001,testBlock,centre_mouse,46,591,reveal,im0000056.jpg,N_1.png,1,N_2.png,2,N_3.png,3,N_4.png,4,Y_1.png,1,Y_2.png,2,Y_3.png,3,Y_4.png,4,confidence.png,1,guessing.png,2,respond_yes.png,3,respond_no.png,4,Word 20 of 20,1,Image 4 of 5,1,reveal.png,5
2001,testBlock,test,1,0,0,im0000056.jpg,+,1,im0000063.jpg,4,mask3.jpg,3,mask4.jpg,4,mask2.jpg,2,mask4.jpg,4,mask2.jpg,2,0,0,0,0,0,0,0,0,0,0,0,0,0,0,0,0
2001,testBlock,centre_mouse,2,2113,reveal,im0000056.jpg,N_1.png,1,N_2.png,2,N_3.png,3,N_4.png,4,Y_1.png,1,Y_2.png,2,Y_3.png,3,Y_4.png,4,confidence.png,1,guessing.png,2,respond_yes.png,3,respond_no.png,4,Word 0 of 20,1,Image 5 of 5,1,reveal.png,5
2001,testBlock,present_trial,3,8298,yes_1,im0000063.jpg,N_1.png,1,N_2.png,2,N_3.png,3,N_4.png,4,Y_1.png,1,Y_2.png,2,Y_3.png,3,Y_4.png,4,confidence.png,1,guessing.png,2,respond_yes.png,3,respond_no.png,4,Word 1 of 20,1,Image 5 of 5,1,family,8
2001,testBlock,centre_mouse,4,267,reveal,im0000063.jpg,N_1.png,1,N_2.png,2,N_3.png,3,N_4.png,4,Y_1.png,1,Y_2.png,2,Y_3.png,3,Y_4.png,4,confidence.png,1,guessing.png,2,respond_yes.png,3,respond_no.png,4,Word 1 of 20,1,Image 5 of 5,1,reveal.png,5
2001,testBlock,present_trial,5,763,yes_4,im0000063.jpg,N_1.png,1,N_2.png,2,N_3.png,3,N_4.png,4,Y_1.png,1,Y_2.png,2,Y_3.png,3,Y_4.png,4,confidence.png,1,guessing.png,2,respond_yes.png,3,respond_no.png,4,Word 2 of 20,1,Image 5 of 5,1,water,1
2001,testBlock,centre_mouse,6,218,reveal,im0000063.jpg,N_1.png,1,N_2.png,2,N_3.png,3,N_4.png,4,Y_1.png,1,Y_2.png,2,Y_3.png,3,Y_4.png,4,confidence.png,1,guessing.png,2,respond_yes.png,3,respond_no.png,4,Word 2 of 20,1,Image 5 of 5,1,reveal.png,5
2001,testBlock,absent_trial,7,1639,no_1,im0000063.jpg,N_1.png,1,N_2.png,2,N_3.png,3,N_4.png,4,Y_1.png,1,Y_2.png,2,Y_3.png,3,Y_4.png,4,confidence.png,1,guessing.png,2,respond_yes.png,3,respond_no.png,4,Word 3 of 20,1,Image 5 of 5,1,atv,1
2001,testBlock,centre_mouse,8,242,reveal,im0000063.jpg,N_1.png,1,N_2.png,2,N_3.png,3,N_4.png,4,Y_1.png,1,Y_2.png,2,Y_3.png,3,Y_4.png,4,confidence.png,1,guessing.png,2,respond_yes.png,3,respond_no.png,4,Word 3 of 20,1,Image 5 of 5,1,reveal.png,5
2001,testBlock,absent_trial,9,1030,no_4,im0000063.jpg,N_1.png,1,N_2.png,2,N_3.png,3,N_4.png,4,Y_1.png,1,Y_2.png,2,Y_3.png,3,Y_4.png,4,confidence.png,1,guessing.png,2,respond_yes.png,3,respond_no.png,4,Word 4 of 20,1,Image 5 of 5,1,snowy,5
2001,testBlock,centre_mouse,10,234,reveal,im0000063.jpg,N_1.png,1,N_2.png,2,N_3.png,3,N_4.png,4,Y_1.png,1,Y_2.png,2,Y_3.png,3,Y_4.png,4,confidence.png,1,guessing.png,2,respond_yes.png,3,respond_no.png,4,Word 4 of 20,1,Image 5 of 5,1,reveal.png,5
2001,testBlock,absent_trial,11,881,yes_4,im0000063.jpg,N_1.png,1,N_2.png,2,N_3.png,3,N_4.png,4,Y_1.png,1,Y_2.png,2,Y_3.png,3,Y_4.png,4,confidence.png,1,guessing.png,2,respond_yes.png,3,respond_no.png,4,Word 5 of 20,1,Image 5 of 5,1,grass,8
2001,testBlock,centre_mouse,12,467,reveal,im0000063.jpg,N_1.png,1,N_2.png,2,N_3.png,3,N_4.png,4,Y_1.png,1,Y_2.png,2,Y_3.png,3,Y_4.png,4,confidence.png,1,guessing.png,2,respond_yes.png,3,respond_no.png,4,Word 5 of 20,1,Image 5 of 5,1,reveal.png,5
2001,testBlock,present_trial,13,510,yes_4,im0000063.jpg,N_1.png,1,N_2.png,2,N_3.png,3,N_4.png,4,Y_1.png,1,Y_2.png,2,Y_3.png,3,Y_4.png,4,confidence.png,1,guessing.png,2,respond_yes.png,3,respond_no.png,4,Word 6 of 20,1,Image 5 of 5,1,animal,7
2001,testBlock,centre_mouse,14,194,reveal,im0000063.jpg,N_1.png,1,N_2.png,2,N_3.png,3,N_4.png,4,Y_1.png,1,Y_2.png,2,Y_3.png,3,Y_4.png,4,confidence.png,1,guessing.png,2,respond_yes.png,3,respond_no.png,4,Word 6 of 20,1,Image 5 of 5,1,reveal.png,5
2001,testBlock,present_trial,15,1422,no_1,im0000063.jpg,N_1.png,1,N_2.png,2,N_3.png,3,N_4.png,4,Y_1.png,1,Y_2.png,2,Y_3.png,3,Y_4.png,4,confidence.png,1,guessing.png,2,respond_yes.png,3,respond_no.png,4,Word 7 of 20,1,Image 5 of 5,1,baby,3
2001,testBlock,centre_mouse,16,204,reveal,im0000063.jpg,N_1.png,1,N_2.png,2,N_3.png,3,N_4.png,4,Y_1.png,1,Y_2.png,2,Y_3.png,3,Y_4.png,4,confidence.png,1,guessing.png,2,respond_yes.png,3,respond_no.png,4,Word 7 of 20,1,Image 5 of 5,1,reveal.png,5
2001,testBlock,absent_trial,17,1702,no_1,im0000063.jpg,N_1.png,1,N_2.png,2,N_3.png,3,N_4.png,4,Y_1.png,1,Y_2.png,2,Y_3.png,3,Y_4.png,4,confidence.png,1,guessing.png,2,respond_yes.png,3,respond_no.png,4,Word 8 of 20,1,Image 5 of 5,1,perfect,7
2001,testBlock,centre_mouse,18,203,reveal,im0000063.jpg,N_1.png,1,N_2.png,2,N_3.png,3,N_4.png,4,Y_1.png,1,Y_2.png,2,Y_3.png,3,Y_4.png,4,confidence.png,1,guessing.png,2,respond_yes.png,3,respond_no.png,4,Word 8 of 20,1,Image 5 of 5,1,reveal.png,5
2001,testBlock,catch_absent_trial,19,869,yes_1,im0000063.jpg,N_1.png,1,N_2.png,2,N_3.png,3,N_4.png,4,Y_1.png,1,Y_2.png,2,Y_3.png,3,Y_4.png,4,confidence.png,1,guessing.png,2,respond_yes.png,3,respond_no.png,4,Word 8 of 20,1,Image 5 of 5,1,PRESS: No 1,1
2001,testBlock,centre_mouse,20,271,reveal,im0000063.jpg,N_1.png,1,N_2.png,2,N_3.png,3,N_4.png,4,Y_1.png,1,Y_2.png,2,Y_3.png,3,Y_4.png,4,confidence.png,1,guessing.png,2,respond_yes.png,3,respond_no.png,4,Word 8 of 20,1,Image 5 of 5,1,reveal.png,5
2001,testBlock,absent_trial,21,1914,no_2,im0000063.jpg,N_1.png,1,N_2.png,2,N_3.png,3,N_4.png,4,Y_1.png,1,Y_2.png,2,Y_3.png,3,Y_4.png,4,confidence.png,1,guessing.png,2,respond_yes.png,3,respond_no.png,4,Word 9 of 20,1,Image 5 of 5,1,child,9
2001,testBlock,centre_mouse,22,471,reveal,im0000063.jpg,N_1.png,1,N_2.png,2,N_3.png,3,N_4.png,4,Y_1.png,1,Y_2.png,2,Y_3.png,3,Y_4.png,4,confidence.png,1,guessing.png,2,respond_yes.png,3,respond_no.png,4,Word 9 of 20,1,Image 5 of 5,1,reveal.png,5
2001,testBlock,present_trial,23,3846,no_4,im0000063.jpg,N_1.png,1,N_2.png,2,N_3.png,3,N_4.png,4,Y_1.png,1,Y_2.png,2,Y_3.png,3,Y_4.png,4,confidence.png,1,guessing.png,2,respond_yes.png,3,respond_no.png,4,Word 10 of 20,1,Image 5 of 5,1,rhino,6
2001,testBlock,centre_mouse,24,266,reveal,im0000063.jpg,N_1.png,1,N_2.png,2,N_3.png,3,N_4.png,4,Y_1.png,1,Y_2.png,2,Y_3.png,3,Y_4.png,4,confidence.png,1,guessing.png,2,respond_yes.png,3,respond_no.png,4,Word 10 of 20,1,Image 5 of 5,1,reveal.png,5
2001,testBlock,absent_trial,25,2533,yes_4,im0000063.jpg,N_1.png,1,N_2.png,2,N_3.png,3,N_4.png,4,Y_1.png,1,Y_2.png,2,Y_3.png,3,Y_4.png,4,confidence.png,1,guessing.png,2,respond_yes.png,3,respond_no.png,4,Word 11 of 20,1,Image 5 of 5,1,river,3
2001,testBlock,centre_mouse,26,866,reveal,im0000063.jpg,N_1.png,1,N_2.png,2,N_3.png,3,N_4.png,4,Y_1.png,1,Y_2.png,2,Y_3.png,3,Y_4.png,4,confidence.png,1,guessing.png,2,respond_yes.png,3,respond_no.png,4,Word 11 of 20,1,Image 5 of 5,1,reveal.png,5
2001,testBlock,absent_trial,27,4097,no_4,im0000063.jpg,N_1.png,1,N_2.png,2,N_3.png,3,N_4.png,4,Y_1.png,1,Y_2.png,2,Y_3.png,3,Y_4.png,4,confidence.png,1,guessing.png,2,respond_yes.png,3,respond_no.png,4,Word 12 of 20,1,Image 5 of 5,1,small-stucture,6
2001,testBlock,centre_mouse,28,274,reveal,im0000063.jpg,N_1.png,1,N_2.png,2,N_3.png,3,N_4.png,4,Y_1.png,1,Y_2.png,2,Y_3.png,3,Y_4.png,4,confidence.png,1,guessing.png,2,respond_yes.png,3,respond_no.png,4,Word 12 of 20,1,Image 5 of 5,1,reveal.png,5
2001,testBlock,absent_trial,29,796,yes_4,im0000063.jpg,N_1.png,1,N_2.png,2,N_3.png,3,N_4.png,4,Y_1.png,1,Y_2.png,2,Y_3.png,3,Y_4.png,4,confidence.png,1,guessing.png,2,respond_yes.png,3,respond_no.png,4,Word 13 of 20,1,Image 5 of 5,1,life,4
2001,testBlock,centre_mouse,30,666,reveal,im0000063.jpg,N_1.png,1,N_2.png,2,N_3.png,3,N_4.png,4,Y_1.png,1,Y_2.png,2,Y_3.png,3,Y_4.png,4,confidence.png,1,guessing.png,2,respond_yes.png,3,respond_no.png,4,Word 13 of 20,1,Image 5 of 5,1,reveal.png,5
2001,testBlock,present_trial,31,8895,yes_4,im0000063.jpg,N_1.png,1,N_2.png,2,N_3.png,3,N_4.png,4,Y_1.png,1,Y_2.png,2,Y_3.png,3,Y_4.png,4,confidence.png,1,guessing.png,2,respond_yes.png,3,respond_no.png,4,Word 14 of 20,1,Image 5 of 5,1,river,10
2001,testBlock,centre_mouse,32,329,reveal,im0000063.jpg,N_1.png,1,N_2.png,2,N_3.png,3,N_4.png,4,Y_1.png,1,Y_2.png,2,Y_3.png,3,Y_4.png,4,confidence.png,1,guessing.png,2,respond_yes.png,3,respond_no.png,4,Word 14 of 20,1,Image 5 of 5,1,reveal.png,5
2001,testBlock,present_trial,33,768,yes_4,im0000063.jpg,N_1.png,1,N_2.png,2,N_3.png,3,N_4.png,4,Y_1.png,1,Y_2.png,2,Y_3.png,3,Y_4.png,4,confidence.png,1,guessing.png,2,respond_yes.png,3,respond_no.png,4,Word 15 of 20,1,Image 5 of 5,1,hippo,2
2001,testBlock,centre_mouse,34,250,reveal,im0000063.jpg,N_1.png,1,N_2.png,2,N_3.png,3,N_4.png,4,Y_1.png,1,Y_2.png,2,Y_3.png,3,Y_4.png,4,confidence.png,1,guessing.png,2,respond_yes.png,3,respond_no.png,4,Word 15 of 20,1,Image 5 of 5,1,reveal.png,5
2001,testBlock,present_trial,35,1130,no_1,im0000063.jpg,N_1.png,1,N_2.png,2,N_3.png,3,N_4.png,4,Y_1.png,1,Y_2.png,2,Y_3.png,3,Y_4.png,4,confidence.png,1,guessing.png,2,respond_yes.png,3,respond_no.png,4,Word 16 of 20,1,Image 5 of 5,1,dirt,9
2001,testBlock,centre_mouse,36,387,reveal,im0000063.jpg,N_1.png,1,N_2.png,2,N_3.png,3,N_4.png,4,Y_1.png,1,Y_2.png,2,Y_3.png,3,Y_4.png,4,confidence.png,1,guessing.png,2,respond_yes.png,3,respond_no.png,4,Word 16 of 20,1,Image 5 of 5,1,reveal.png,5
2001,testBlock,catch_absent_trial,37,1281,yes_3,im0000063.jpg,N_1.png,1,N_2.png,2,N_3.png,3,N_4.png,4,Y_1.png,1,Y_2.png,2,Y_3.png,3,Y_4.png,4,confidence.png,1,guessing.png,2,respond_yes.png,3,respond_no.png,4,Word 16 of 20,1,Image 5 of 5,1,PRESS: No 3,3
2001,testBlock,centre_mouse,38,297,reveal,im0000063.jpg,N_1.png,1,N_2.png,2,N_3.png,3,N_4.png,4,Y_1.png,1,Y_2.png,2,Y_3.png,3,Y_4.png,4,confidence.png,1,guessing.png,2,respond_yes.png,3,respond_no.png,4,Word 16 of 20,1,Image 5 of 5,1,reveal.png,5
2001,testBlock,present_trial,39,2513,yes_4,im0000063.jpg,N_1.png,1,N_2.png,2,N_3.png,3,N_4.png,4,Y_1.png,1,Y_2.png,2,Y_3.png,3,Y_4.png,4,confidence.png,1,guessing.png,2,respond_yes.png,3,respond_no.png,4,Word 17 of 20,1,Image 5 of 5,1,two,4
2001,testBlock,centre_mouse,40,233,reveal,im0000063.jpg,N_1.png,1,N_2.png,2,N_3.png,3,N_4.png,4,Y_1.png,1,Y_2.png,2,Y_3.png,3,Y_4.png,4,confidence.png,1,guessing.png,2,respond_yes.png,3,respond_no.png,4,Word 17 of 20,1,Image 5 of 5,1,reveal.png,5
2001,testBlock,present_trial,41,4271,yes_4,im0000063.jpg,N_1.png,1,N_2.png,2,N_3.png,3,N_4.png,4,Y_1.png,1,Y_2.png,2,Y_3.png,3,Y_4.png,4,confidence.png,1,guessing.png,2,respond_yes.png,3,respond_no.png,4,Word 18 of 20,1,Image 5 of 5,1,africa,5
2001,testBlock,centre_mouse,42,736,reveal,im0000063.jpg,N_1.png,1,N_2.png,2,N_3.png,3,N_4.png,4,Y_1.png,1,Y_2.png,2,Y_3.png,3,Y_4.png,4,confidence.png,1,guessing.png,2,respond_yes.png,3,respond_no.png,4,Word 18 of 20,1,Image 5 of 5,1,reveal.png,5
2001,testBlock,absent_trial,43,889,yes_4,im0000063.jpg,N_1.png,1,N_2.png,2,N_3.png,3,N_4.png,4,Y_1.png,1,Y_2.png,2,Y_3.png,3,Y_4.png,4,confidence.png,1,guessing.png,2,respond_yes.png,3,respond_no.png,4,Word 19 of 20,1,Image 5 of 5,1,wonderful,2
2001,testBlock,centre_mouse,44,410,reveal,im0000063.jpg,N_1.png,1,N_2.png,2,N_3.png,3,N_4.png,4,Y_1.png,1,Y_2.png,2,Y_3.png,3,Y_4.png,4,confidence.png,1,guessing.png,2,respond_yes.png,3,respond_no.png,4,Word 19 of 20,1,Image 5 of 5,1,reveal.png,5
2001,testBlock,absent_trial,45,993,no_4,im0000063.jpg,N_1.png,1,N_2.png,2,N_3.png,3,N_4.png,4,Y_1.png,1,Y_2.png,2,Y_3.png,3,Y_4.png,4,confidence.png,1,guessing.png,2,respond_yes.png,3,respond_no.png,4,Word 20 of 20,1,Image 5 of 5,1,clothe,10
2001,testBlock,centre_mouse,46,580,reveal,im0000063.jpg,N_1.png,1,N_2.png,2,N_3.png,3,N_4.png,4,Y_1.png,1,Y_2.png,2,Y_3.png,3,Y_4.png,4,confidence.png,1,guessing.png,2,respond_yes.png,3,respond_no.png,4,Word 20 of 20,1,Image 5 of 5,1,reveal.png,5
2002,practiceBlock,practice,1,0,0,Picture1.jpg,+,1,Picture3.jpg,3,mask5.jpg,5,mask3.jpg,3,mask3.jpg,3,mask3.jpg,3,mask3.jpg,3,0,0,0,0,0,0,0,0,0,0,0,0,0,0,0,0
2002,practiceBlock,centre_mouse,2,3148,reveal,Picture1.jpg,N_1.png,1,N_2.png,2,N_3.png,3,N_4.png,4,Y_1.png,1,Y_2.png,2,Y_3.png,3,Y_4.png,4,confidence.png,1,guessing.png,2,respond_yes.png,3,respond_no.png,4,Word 0 of 12,1,Image 1 of 3,1,reveal.png,5
2002,practiceBlock,practice_absent_trial,3,5403,yes_3,Picture3.jpg,N_1.png,1,N_2.png,2,N_3.png,3,N_4.png,4,Y_1.png,1,Y_2.png,2,Y_3.png,3,Y_4.png,4,confidence.png,1,guessing.png,2,respond_yes.png,3,respond_no.png,4,Word 1 of 12,1,Image 1 of 3,1,zoomed-in,1
2002,practiceBlock,centre_mouse,4,1027,reveal,Picture3.jpg,N_1.png,1,N_2.png,2,N_3.png,3,N_4.png,4,Y_1.png,1,Y_2.png,2,Y_3.png,3,Y_4.png,4,confidence.png,1,guessing.png,2,respond_yes.png,3,respond_no.png,4,Word 1 of 12,1,Image 1 of 3,1,reveal.png,5
2002,practiceBlock,practice_present_trial,5,2119,yes_1,Picture3.jpg,N_1.png,1,N_2.png,2,N_3.png,3,N_4.png,4,Y_1.png,1,Y_2.png,2,Y_3.png,3,Y_4.png,4,confidence.png,1,guessing.png,2,respond_yes.png,3,respond_no.png,4,Word 2 of 12,1,Image 1 of 3,1,sun,2
2002,practiceBlock,centre_mouse,6,746,reveal,Picture3.jpg,N_1.png,1,N_2.png,2,N_3.png,3,N_4.png,4,Y_1.png,1,Y_2.png,2,Y_3.png,3,Y_4.png,4,confidence.png,1,guessing.png,2,respond_yes.png,3,respond_no.png,4,Word 2 of 12,1,Image 1 of 3,1,reveal.png,5
2002,practiceBlock,practice_absent_trial,7,1706,no_1,Picture3.jpg,N_1.png,1,N_2.png,2,N_3.png,3,N_4.png,4,Y_1.png,1,Y_2.png,2,Y_3.png,3,Y_4.png,4,confidence.png,1,guessing.png,2,respond_yes.png,3,respond_no.png,4,Word 3 of 12,1,Image 1 of 3,1,coat,3
2002,practiceBlock,centre_mouse,8,1508,reveal,Picture3.jpg,N_1.png,1,N_2.png,2,N_3.png,3,N_4.png,4,Y_1.png,1,Y_2.png,2,Y_3.png,3,Y_4.png,4,confidence.png,1,guessing.png,2,respond_yes.png,3,respond_no.png,4,Word 3 of 12,1,Image 1 of 3,1,reveal.png,5
2002,practiceBlock,practice_present_trial,9,789,no_2,Picture3.jpg,N_1.png,1,N_2.png,2,N_3.png,3,N_4.png,4,Y_1.png,1,Y_2.png,2,Y_3.png,3,Y_4.png,4,confidence.png,1,guessing.png,2,respond_yes.png,3,respond_no.png,4,Word 4 of 12,1,Image 1 of 3,1,blue,5
2002,practiceBlock,centre_mouse,10,1300,reveal,Picture3.jpg,N_1.png,1,N_2.png,2,N_3.png,3,N_4.png,4,Y_1.png,1,Y_2.png,2,Y_3.png,3,Y_4.png,4,confidence.png,1,guessing.png,2,respond_yes.png,3,respond_no.png,4,Word 4 of 12,1,Image 1 of 3,1,reveal.png,5
2002,practiceBlock,practice_absent_trial,11,1102,no_2,Picture3.jpg,N_1.png,1,N_2.png,2,N_3.png,3,N_4.png,4,Y_1.png,1,Y_2.png,2,Y_3.png,3,Y_4.png,4,confidence.png,1,guessing.png,2,respond_yes.png,3,respond_no.png,4,Word 5 of 12,1,Image 1 of 3,1,old,4
2002,practiceBlock,centre_mouse,12,610,reveal,Picture3.jpg,N_1.png,1,N_2.png,2,N_3.png,3,N_4.png,4,Y_1.png,1,Y_2.png,2,Y_3.png,3,Y_4.png,4,confidence.png,1,guessing.png,2,respond_yes.png,3,respond_no.png,4,Word 5 of 12,1,Image 1 of 3,1,reveal.png,5
2002,practiceBlock,practice_present_trial,13,718,no_3,Picture3.jpg,N_1.png,1,N_2.png,2,N_3.png,3,N_4.png,4,Y_1.png,1,Y_2.png,2,Y_3.png,3,Y_4.png,4,confidence.png,1,guessing.png,2,respond_yes.png,3,respond_no.png,4,Word 6 of 12,1,Image 1 of 3,1,landscape,4
2002,practiceBlock,centre_mouse,14,993,reveal,Picture3.jpg,N_1.png,1,N_2.png,2,N_3.png,3,N_4.png,4,Y_1.png,1,Y_2.png,2,Y_3.png,3,Y_4.png,4,confidence.png,1,guessing.png,2,respond_yes.png,3,respond_no.png,4,Word 6 of 12,1,Image 1 of 3,1,reveal.png,5
2002,practiceBlock,practice_absent_trial,15,927,no_4,Picture3.jpg,N_1.png,1,N_2.png,2,N_3.png,3,N_4.png,4,Y_1.png,1,Y_2.png,2,Y_3.png,3,Y_4.png,4,confidence.png,1,guessing.png,2,respond_yes.png,3,respond_no.png,4,Word 7 of 12,1,Image 1 of 3,1,blue-hat,6
2002,practiceBlock,centre_mouse,16,1393,reveal,Picture3.jpg,N_1.png,1,N_2.png,2,N_3.png,3,N_4.png,4,Y_1.png,1,Y_2.png,2,Y_3.png,3,Y_4.png,4,confidence.png,1,guessing.png,2,respond_yes.png,3,respond_no.png,4,Word 7 of 12,1,Image 1 of 3,1,reveal.png,5
2002,practiceBlock,practice_present_trial,17,678,yes_4,Picture3.jpg,N_1.png,1,N_2.png,2,N_3.png,3,N_4.png,4,Y_1.png,1,Y_2.png,2,Y_3.png,3,Y_4.png,4,confidence.png,1,guessing.png,2,respond_yes.png,3,respond_no.png,4,Word 8 of 12,1,Image 1 of 3,1,cloud,3
2002,practiceBlock,centre_mouse,18,970,reveal,Picture3.jpg,N_1.png,1,N_2.png,2,N_3.png,3,N_4.png,4,Y_1.png,1,Y_2.png,2,Y_3.png,3,Y_4.png,4,confidence.png,1,guessing.png,2,respond_yes.png,3,respond_no.png,4,Word 8 of 12,1,Image 1 of 3,1,reveal.png,5
2002,practiceBlock,practice_present_trial,19,1329,yes_1,Picture3.jpg,N_1.png,1,N_2.png,2,N_3.png,3,N_4.png,4,Y_1.png,1,Y_2.png,2,Y_3.png,3,Y_4.png,4,confidence.png,1,guessing.png,2,respond_yes.png,3,respond_no.png,4,Word 9 of 12,1,Image 1 of 3,1,sky,6
2002,practiceBlock,centre_mouse,20,1179,reveal,Picture3.jpg,N_1.png,1,N_2.png,2,N_3.png,3,N_4.png,4,Y_1.png,1,Y_2.png,2,Y_3.png,3,Y_4.png,4,confidence.png,1,guessing.png,2,respond_yes.png,3,respond_no.png,4,Word 9 of 12,1,Image 1 of 3,1,reveal.png,5
2002,practiceBlock,practice_absent_trial,21,1753,no_2,Picture3.jpg,N_1.png,1,N_2.png,2,N_3.png,3,N_4.png,4,Y_1.png,1,Y_2.png,2,Y_3.png,3,Y_4.png,4,confidence.png,1,guessing.png,2,respond_yes.png,3,respond_no.png,4,Word 10 of 12,1,Image 1 of 3,1,stand,5
2002,practiceBlock,centre_mouse,22,675,reveal,Picture3.jpg,N_1.png,1,N_2.png,2,N_3.png,3,N_4.png,4,Y_1.png,1,Y_2.png,2,Y_3.png,3,Y_4.png,4,confidence.png,1,guessing.png,2,respond_yes.png,3,respond_no.png,4,Word 10 of 12,1,Image 1 of 3,1,reveal.png,5
2002,practiceBlock,practice_absent_trial,23,749,no_3,Picture3.jpg,N_1.png,1,N_2.png,2,N_3.png,3,N_4.png,4,Y_1.png,1,Y_2.png,2,Y_3.png,3,Y_4.png,4,confidence.png,1,guessing.png,2,respond_yes.png,3,respond_no.png,4,Word 11 of 12,1,Image 1 of 3,1,horse,2
2002,practiceBlock,centre_mouse,24,782,reveal,Picture3.jpg,N_1.png,1,N_2.png,2,N_3.png,3,N_4.png,4,Y_1.png,1,Y_2.png,2,Y_3.png,3,Y_4.png,4,confidence.png,1,guessing.png,2,respond_yes.png,3,respond_no.png,4,Word 11 of 12,1,Image 1 of 3,1,reveal.png,5
2002,practiceBlock,practice_present_trial,25,1188,no_4,Picture3.jpg,N_1.png,1,N_2.png,2,N_3.png,3,N_4.png,4,Y_1.png,1,Y_2.png,2,Y_3.png,3,Y_4.png,4,confidence.png,1,guessing.png,2,respond_yes.png,3,respond_no.png,4,Word 12 of 12,1,Image 1 of 3,1,mountain,1
2002,practiceBlock,centre_mouse,26,637,reveal,Picture3.jpg,N_1.png,1,N_2.png,2,N_3.png,3,N_4.png,4,Y_1.png,1,Y_2.png,2,Y_3.png,3,Y_4.png,4,confidence.png,1,guessing.png,2,respond_yes.png,3,respond_no.png,4,Word 12 of 12,1,Image 1 of 3,1,reveal.png,5
2002,practiceBlock,catch_absent_trial,27,1569,yes_4,Picture3.jpg,N_1.png,1,N_2.png,2,N_3.png,3,N_4.png,4,Y_1.png,1,Y_2.png,2,Y_3.png,3,Y_4.png,4,confidence.png,1,guessing.png,2,respond_yes.png,3,respond_no.png,4,Word 12 of 12,1,Image 1 of 3,1,PRESS: No 4,4
2002,practiceBlock,centre_mouse,28,817,reveal,Picture3.jpg,N_1.png,1,N_2.png,2,N_3.png,3,N_4.png,4,Y_1.png,1,Y_2.png,2,Y_3.png,3,Y_4.png,4,confidence.png,1,guessing.png,2,respond_yes.png,3,respond_no.png,4,Word 12 of 12,1,Image 1 of 3,1,reveal.png,5
2002,practiceBlock,catch_present_trial,29,11022,yes_1,Picture3.jpg,N_1.png,1,N_2.png,2,N_3.png,3,N_4.png,4,Y_1.png,1,Y_2.png,2,Y_3.png,3,Y_4.png,4,confidence.png,1,guessing.png,2,respond_yes.png,3,respond_no.png,4,Word 12 of 12,1,Image 1 of 3,1,PRESS: Yes 1,1
2002,practiceBlock,centre_mouse,30,1630,reveal,Picture3.jpg,N_1.png,1,N_2.png,2,N_3.png,3,N_4.png,4,Y_1.png,1,Y_2.png,2,Y_3.png,3,Y_4.png,4,confidence.png,1,guessing.png,2,respond_yes.png,3,respond_no.png,4,Word 12 of 12,1,Image 1 of 3,1,reveal.png,5
2002,practiceBlock,practice,1,0,0,Picture3.jpg,+,1,Picture1.jpg,1,mask3.jpg,3,mask2.jpg,2,mask4.jpg,4,mask1.jpg,1,mask2.jpg,2,0,0,0,0,0,0,0,0,0,0,0,0,0,0,0,0
2002,practiceBlock,centre_mouse,2,3599,reveal,Picture3.jpg,N_1.png,1,N_2.png,2,N_3.png,3,N_4.png,4,Y_1.png,1,Y_2.png,2,Y_3.png,3,Y_4.png,4,confidence.png,1,guessing.png,2,respond_yes.png,3,respond_no.png,4,Word 0 of 12,1,Image 2 of 3,1,reveal.png,5
2002,practiceBlock,practice_absent_trial,3,804,yes_3,Picture1.jpg,N_1.png,1,N_2.png,2,N_3.png,3,N_4.png,4,Y_1.png,1,Y_2.png,2,Y_3.png,3,Y_4.png,4,confidence.png,1,guessing.png,2,respond_yes.png,3,respond_no.png,4,Word 1 of 12,1,Image 2 of 3,1,line,6
2002,practiceBlock,centre_mouse,4,740,reveal,Picture1.jpg,N_1.png,1,N_2.png,2,N_3.png,3,N_4.png,4,Y_1.png,1,Y_2.png,2,Y_3.png,3,Y_4.png,4,confidence.png,1,guessing.png,2,respond_yes.png,3,respond_no.png,4,Word 1 of 12,1,Image 2 of 3,1,reveal.png,5
2002,practiceBlock,practice_present_trial,5,747,yes_2,Picture1.jpg,N_1.png,1,N_2.png,2,N_3.png,3,N_4.png,4,Y_1.png,1,Y_2.png,2,Y_3.png,3,Y_4.png,4,confidence.png,1,guessing.png,2,respond_yes.png,3,respond_no.png,4,Word 2 of 12,1,Image 2 of 3,1,heart,1
2002,practiceBlock,centre_mouse,6,820,reveal,Picture1.jpg,N_1.png,1,N_2.png,2,N_3.png,3,N_4.png,4,Y_1.png,1,Y_2.png,2,Y_3.png,3,Y_4.png,4,confidence.png,1,guessing.png,2,respond_yes.png,3,respond_no.png,4,Word 2 of 12,1,Image 2 of 3,1,reveal.png,5
2002,practiceBlock,practice_present_trial,7,481,yes_1,Picture1.jpg,N_1.png,1,N_2.png,2,N_3.png,3,N_4.png,4,Y_1.png,1,Y_2.png,2,Y_3.png,3,Y_4.png,4,confidence.png,1,guessing.png,2,respond_yes.png,3,respond_no.png,4,Word 3 of 12,1,Image 2 of 3,1,black,4
2002,practiceBlock,centre_mouse,8,806,reveal,Picture1.jpg,N_1.png,1,N_2.png,2,N_3.png,3,N_4.png,4,Y_1.png,1,Y_2.png,2,Y_3.png,3,Y_4.png,4,confidence.png,1,guessing.png,2,respond_yes.png,3,respond_no.png,4,Word 3 of 12,1,Image 2 of 3,1,reveal.png,5
2002,practiceBlock,practice_absent_trial,9,450,no_1,Picture1.jpg,N_1.png,1,N_2.png,2,N_3.png,3,N_4.png,4,Y_1.png,1,Y_2.png,2,Y_3.png,3,Y_4.png,4,confidence.png,1,guessing.png,2,respond_yes.png,3,respond_no.png,4,Word 4 of 12,1,Image 2 of 3,1,blanket,1
2002,practiceBlock,centre_mouse,10,688,reveal,Picture1.jpg,N_1.png,1,N_2.png,2,N_3.png,3,N_4.png,4,Y_1.png,1,Y_2.png,2,Y_3.png,3,Y_4.png,4,confidence.png,1,guessing.png,2,respond_yes.png,3,respond_no.png,4,Word 4 of 12,1,Image 2 of 3,1,reveal.png,5
2002,practiceBlock,practice_present_trial,11,466,no_2,Picture1.jpg,N_1.png,1,N_2.png,2,N_3.png,3,N_4.png,4,Y_1.png,1,Y_2.png,2,Y_3.png,3,Y_4.png,4,confidence.png,1,guessing.png,2,respond_yes.png,3,respond_no.png,4,Word 5 of 12,1,Image 2 of 3,1,color,6
2002,practiceBlock,centre_mouse,12,943,reveal,Picture1.jpg,N_1.png,1,N_2.png,2,N_3.png,3,N_4.png,4,Y_1.png,1,Y_2.png,2,Y_3.png,3,Y_4.png,4,confidence.png,1,guessing.png,2,respond_yes.png,3,respond_no.png,4,Word 5 of 12,1,Image 2 of 3,1,reveal.png,5
2002,practiceBlock,practice_absent_trial,13,822,no_3,Picture1.jpg,N_1.png,1,N_2.png,2,N_3.png,3,N_4.png,4,Y_1.png,1,Y_2.png,2,Y_3.png,3,Y_4.png,4,confidence.png,1,guessing.png,2,respond_yes.png,3,respond_no.png,4,Word 6 of 12,1,Image 2 of 3,1,dome,5
2002,practiceBlock,centre_mouse,14,1069,reveal,Picture1.jpg,N_1.png,1,N_2.png,2,N_3.png,3,N_4.png,4,Y_1.png,1,Y_2.png,2,Y_3.png,3,Y_4.png,4,confidence.png,1,guessing.png,2,respond_yes.png,3,respond_no.png,4,Word 6 of 12,1,Image 2 of 3,1,reveal.png,5
2002,practiceBlock,practice_present_trial,15,808,no_4,Picture1.jpg,N_1.png,1,N_2.png,2,N_3.png,3,N_4.png,4,Y_1.png,1,Y_2.png,2,Y_3.png,3,Y_4.png,4,confidence.png,1,guessing.png,2,respond_yes.png,3,respond_no.png,4,Word 7 of 12,1,Image 2 of 3,1,red,3
2002,practiceBlock,centre_mouse,16,718,reveal,Picture1.jpg,N_1.png,1,N_2.png,2,N_3.png,3,N_4.png,4,Y_1.png,1,Y_2.png,2,Y_3.png,3,Y_4.png,4,confidence.png,1,guessing.png,2,respond_yes.png,3,respond_no.png,4,Word 7 of 12,1,Image 2 of 3,1,reveal.png,5
2002,practiceBlock,practice_present_trial,17,423,yes_4,Picture1.jpg,N_1.png,1,N_2.png,2,N_3.png,3,N_4.png,4,Y_1.png,1,Y_2.png,2,Y_3.png,3,Y_4.png,4,confidence.png,1,guessing.png,2,respond_yes.png,3,respond_no.png,4,Word 8 of 12,1,Image 2 of 3,1,outline,5
2002,practiceBlock,centre_mouse,18,885,reveal,Picture1.jpg,N_1.png,1,N_2.png,2,N_3.png,3,N_4.png,4,Y_1.png,1,Y_2.png,2,Y_3.png,3,Y_4.png,4,confidence.png,1,guessing.png,2,respond_yes.png,3,respond_no.png,4,Word 8 of 12,1,Image 2 of 3,1,reveal.png,5
2002,practiceBlock,practice_absent_trial,19,711,yes_3,Picture1.jpg,N_1.png,1,N_2.png,2,N_3.png,3,N_4.png,4,Y_1.png,1,Y_2.png,2,Y_3.png,3,Y_4.png,4,confidence.png,1,guessing.png,2,respond_yes.png,3,respond_no.png,4,Word 9 of 12,1,Image 2 of 3,1,day,4
2002,practiceBlock,centre_mouse,20,818,reveal,Picture1.jpg,N_1.png,1,N_2.png,2,N_3.png,3,N_4.png,4,Y_1.png,1,Y_2.png,2,Y_3.png,3,Y_4.png,4,confidence.png,1,guessing.png,2,respond_yes.png,3,respond_no.png,4,Word 9 of 12,1,Image 2 of 3,1,reveal.png,5
2002,practiceBlock,practice_absent_trial,21,607,yes_2,Picture1.jpg,N_1.png,1,N_2.png,2,N_3.png,3,N_4.png,4,Y_1.png,1,Y_2.png,2,Y_3.png,3,Y_4.png,4,confidence.png,1,guessing.png,2,respond_yes.png,3,respond_no.png,4,Word 10 of 12,1,Image 2 of 3,1,wall,3
2002,practiceBlock,centre_mouse,22,870,reveal,Picture1.jpg,N_1.png,1,N_2.png,2,N_3.png,3,N_4.png,4,Y_1.png,1,Y_2.png,2,Y_3.png,3,Y_4.png,4,confidence.png,1,guessing.png,2,respond_yes.png,3,respond_no.png,4,Word 10 of 12,1,Image 2 of 3,1,reveal.png,5
2002,practiceBlock,practice_present_trial,23,417,yes_1,Picture1.jpg,N_1.png,1,N_2.png,2,N_3.png,3,N_4.png,4,Y_1.png,1,Y_2.png,2,Y_3.png,3,Y_4.png,4,confidence.png,1,guessing.png,2,respond_yes.png,3,respond_no.png,4,Word 11 of 12,1,Image 2 of 3,1,love,2
2002,practiceBlock,centre_mouse,24,703,reveal,Picture1.jpg,N_1.png,1,N_2.png,2,N_3.png,3,N_4.png,4,Y_1.png,1,Y_2.png,2,Y_3.png,3,Y_4.png,4,confidence.png,1,guessing.png,2,respond_yes.png,3,respond_no.png,4,Word 11 of 12,1,Image 2 of 3,1,reveal.png,5
2002,practiceBlock,practice_absent_trial,25,561,no_1,Picture1.jpg,N_1.png,1,N_2.png,2,N_3.png,3,N_4.png,4,Y_1.png,1,Y_2.png,2,Y_3.png,3,Y_4.png,4,confidence.png,1,guessing.png,2,respond_yes.png,3,respond_no.png,4,Word 12 of 12,1,Image 2 of 3,1,crow,2
2002,practiceBlock,centre_mouse,26,834,reveal,Picture1.jpg,N_1.png,1,N_2.png,2,N_3.png,3,N_4.png,4,Y_1.png,1,Y_2.png,2,Y_3.png,3,Y_4.png,4,confidence.png,1,guessing.png,2,respond_yes.png,3,respond_no.png,4,Word 12 of 12,1,Image 2 of 3,1,reveal.png,5
2002,practiceBlock,catch_absent_trial,27,5229,yes_2,Picture1.jpg,N_1.png,1,N_2.png,2,N_3.png,3,N_4.png,4,Y_1.png,1,Y_2.png,2,Y_3.png,3,Y_4.png,4,confidence.png,1,guessing.png,2,respond_yes.png,3,respond_no.png,4,Word 12 of 12,1,Image 2 of 3,1,PRESS: No 2,2
2002,practiceBlock,centre_mouse,28,1508,reveal,Picture1.jpg,N_1.png,1,N_2.png,2,N_3.png,3,N_4.png,4,Y_1.png,1,Y_2.png,2,Y_3.png,3,Y_4.png,4,confidence.png,1,guessing.png,2,respond_yes.png,3,respond_no.png,4,Word 12 of 12,1,Image 2 of 3,1,reveal.png,5
2002,practiceBlock,catch_present_trial,29,1389,yes_4,Picture1.jpg,N_1.png,1,N_2.png,2,N_3.png,3,N_4.png,4,Y_1.png,1,Y_2.png,2,Y_3.png,3,Y_4.png,4,confidence.png,1,guessing.png,2,respond_yes.png,3,respond_no.png,4,Word 12 of 12,1,Image 2 of 3,1,PRESS: Yes 4,4
2002,practiceBlock,centre_mouse,30,612,reveal,Picture1.jpg,N_1.png,1,N_2.png,2,N_3.png,3,N_4.png,4,Y_1.png,1,Y_2.png,2,Y_3.png,3,Y_4.png,4,confidence.png,1,guessing.png,2,respond_yes.png,3,respond_no.png,4,Word 12 of 12,1,Image 2 of 3,1,reveal.png,5
2002,practiceBlock,practice,1,0,0,Picture1.jpg,+,1,Picture2.jpg,2,mask4.jpg,4,mask1.jpg,1,mask5.jpg,5,mask5.jpg,5,mask4.jpg,4,0,0,0,0,0,0,0,0,0,0,0,0,0,0,0,0
2002,practiceBlock,centre_mouse,2,1909,reveal,Picture1.jpg,N_1.png,1,N_2.png,2,N_3.png,3,N_4.png,4,Y_1.png,1,Y_2.png,2,Y_3.png,3,Y_4.png,4,confidence.png,1,guessing.png,2,respond_yes.png,3,respond_no.png,4,Word 0 of 12,1,Image 3 of 3,1,reveal.png,5
2002,practiceBlock,practice_absent_trial,3,1054,no_1,Picture2.jpg,N_1.png,1,N_2.png,2,N_3.png,3,N_4.png,4,Y_1.png,1,Y_2.png,2,Y_3.png,3,Y_4.png,4,confidence.png,1,guessing.png,2,respond_yes.png,3,respond_no.png,4,Word 1 of 12,1,Image 3 of 3,1,grey-clothes,4
2002,practiceBlock,centre_mouse,4,1019,reveal,Picture2.jpg,N_1.png,1,N_2.png,2,N_3.png,3,N_4.png,4,Y_1.png,1,Y_2.png,2,Y_3.png,3,Y_4.png,4,confidence.png,1,guessing.png,2,respond_yes.png,3,respond_no.png,4,Word 1 of 12,1,Image 3 of 3,1,reveal.png,5
2002,practiceBlock,practice_present_trial,5,960,no_2,Picture2.jpg,N_1.png,1,N_2.png,2,N_3.png,3,N_4.png,4,Y_1.png,1,Y_2.png,2,Y_3.png,3,Y_4.png,4,confidence.png,1,guessing.png,2,respond_yes.png,3,respond_no.png,4,Word 2 of 12,1,Image 3 of 3,1,eyes,3
2002,practiceBlock,centre_mouse,6,841,reveal,Picture2.jpg,N_1.png,1,N_2.png,2,N_3.png,3,N_4.png,4,Y_1.png,1,Y_2.png,2,Y_3.png,3,Y_4.png,4,confidence.png,1,guessing.png,2,respond_yes.png,3,respond_no.png,4,Word 2 of 12,1,Image 3 of 3,1,reveal.png,5
2002,practiceBlock,practice_absent_trial,7,1580,no_3,Picture2.jpg,N_1.png,1,N_2.png,2,N_3.png,3,N_4.png,4,Y_1.png,1,Y_2.png,2,Y_3.png,3,Y_4.png,4,confidence.png,1,guessing.png,2,respond_yes.png,3,respond_no.png,4,Word 3 of 12,1,Image 3 of 3,1,walk,1
2002,practiceBlock,centre_mouse,8,853,reveal,Picture2.jpg,N_1.png,1,N_2.png,2,N_3.png,3,N_4.png,4,Y_1.png,1,Y_2.png,2,Y_3.png,3,Y_4.png,4,confidence.png,1,guessing.png,2,respond_yes.png,3,respond_no.png,4,Word 3 of 12,1,Image 3 of 3,1,reveal.png,5
2002,practiceBlock,practice_present_trial,9,887,no_4,Picture2.jpg,N_1.png,1,N_2.png,2,N_3.png,3,N_4.png,4,Y_1.png,1,Y_2.png,2,Y_3.png,3,Y_4.png,4,confidence.png,1,guessing.png,2,respond_yes.png,3,respond_no.png,4,Word 4 of 12,1,Image 3 of 3,1,emoji,6
2002,practiceBlock,centre_mouse,10,780,reveal,Picture2.jpg,N_1.png,1,N_2.png,2,N_3.png,3,N_4.png,4,Y_1.png,1,Y_2.png,2,Y_3.png,3,Y_4.png,4,confidence.png,1,guessing.png,2,respond_yes.png,3,respond_no.png,4,Word 4 of 12,1,Image 3 of 3,1,reveal.png,5
2002,practiceBlock,practice_present_trial,11,466,yes_4,Picture2.jpg,N_1.png,1,N_2.png,2,N_3.png,3,N_4.png,4,Y_1.png,1,Y_2.png,2,Y_3.png,3,Y_4.png,4,confidence.png,1,guessing.png,2,respond_yes.png,3,respond_no.png,4,Word 5 of 12,1,Image 3 of 3,1,smile,4
2002,practiceBlock,centre_mouse,12,598,reveal,Picture2.jpg,N_1.png,1,N_2.png,2,N_3.png,3,N_4.png,4,Y_1.png,1,Y_2.png,2,Y_3.png,3,Y_4.png,4,confidence.png,1,guessing.png,2,respond_yes.png,3,respond_no.png,4,Word 5 of 12,1,Image 3 of 3,1,reveal.png,5
2002,practiceBlock,practice_absent_trial,13,516,yes_3,Picture2.jpg,N_1.png,1,N_2.png,2,N_3.png,3,N_4.png,4,Y_1.png,1,Y_2.png,2,Y_3.png,3,Y_4.png,4,confidence.png,1,guessing.png,2,respond_yes.png,3,respond_no.png,4,Word 6 of 12,1,Image 3 of 3,1,man,6
2002,practiceBlock,centre_mouse,14,1014,reveal,Picture2.jpg,N_1.png,1,N_2.png,2,N_3.png,3,N_4.png,4,Y_1.png,1,Y_2.png,2,Y_3.png,3,Y_4.png,4,confidence.png,1,guessing.png,2,respond_yes.png,3,respond_no.png,4,Word 6 of 12,1,Image 3 of 3,1,reveal.png,5
2002,practiceBlock,practice_present_trial,15,667,yes_2,Picture2.jpg,N_1.png,1,N_2.png,2,N_3.png,3,N_4.png,4,Y_1.png,1,Y_2.png,2,Y_3.png,3,Y_4.png,4,confidence.png,1,guessing.png,2,respond_yes.png,3,respond_no.png,4,Word 7 of 12,1,Image 3 of 3,1,yellow,2
2002,practiceBlock,centre_mouse,16,887,reveal,Picture2.jpg,N_1.png,1,N_2.png,2,N_3.png,3,N_4.png,4,Y_1.png,1,Y_2.png,2,Y_3.png,3,Y_4.png,4,confidence.png,1,guessing.png,2,respond_yes.png,3,respond_no.png,4,Word 7 of 12,1,Image 3 of 3,1,reveal.png,5
2002,practiceBlock,practice_present_trial,17,913,yes_1,Picture2.jpg,N_1.png,1,N_2.png,2,N_3.png,3,N_4.png,4,Y_1.png,1,Y_2.png,2,Y_3.png,3,Y_4.png,4,confidence.png,1,guessing.png,2,respond_yes.png,3,respond_no.png,4,Word 8 of 12,1,Image 3 of 3,1,happy,5
2002,practiceBlock,centre_mouse,18,820,reveal,Picture2.jpg,N_1.png,1,N_2.png,2,N_3.png,3,N_4.png,4,Y_1.png,1,Y_2.png,2,Y_3.png,3,Y_4.png,4,confidence.png,1,guessing.png,2,respond_yes.png,3,respond_no.png,4,Word 8 of 12,1,Image 3 of 3,1,reveal.png,5
2002,practiceBlock,practice_absent_trial,19,1025,no_1,Picture2.jpg,N_1.png,1,N_2.png,2,N_3.png,3,N_4.png,4,Y_1.png,1,Y_2.png,2,Y_3.png,3,Y_4.png,4,confidence.png,1,guessing.png,2,respond_yes.png,3,respond_no.png,4,Word 9 of 12,1,Image 3 of 3,1,metal,3
2002,practiceBlock,centre_mouse,20,479,reveal,Picture2.jpg,N_1.png,1,N_2.png,2,N_3.png,3,N_4.png,4,Y_1.png,1,Y_2.png,2,Y_3.png,3,Y_4.png,4,confidence.png,1,guessing.png,2,respond_yes.png,3,respond_no.png,4,Word 9 of 12,1,Image 3 of 3,1,reveal.png,5
2002,practiceBlock,practice_absent_trial,21,905,no_2,Picture2.jpg,N_1.png,1,N_2.png,2,N_3.png,3,N_4.png,4,Y_1.png,1,Y_2.png,2,Y_3.png,3,Y_4.png,4,confidence.png,1,guessing.png,2,respond_yes.png,3,respond_no.png,4,Word 10 of 12,1,Image 3 of 3,1,beauty,2
2002,practiceBlock,centre_mouse,22,652,reveal,Picture2.jpg,N_1.png,1,N_2.png,2,N_3.png,3,N_4.png,4,Y_1.png,1,Y_2.png,2,Y_3.png,3,Y_4.png,4,confidence.png,1,guessing.png,2,respond_yes.png,3,respond_no.png,4,Word 10 of 12,1,Image 3 of 3,1,reveal.png,5
2002,practiceBlock,practice_present_trial,23,1000,no_3,Picture2.jpg,N_1.png,1,N_2.png,2,N_3.png,3,N_4.png,4,Y_1.png,1,Y_2.png,2,Y_3.png,3,Y_4.png,4,confidence.png,1,guessing.png,2,respond_yes.png,3,respond_no.png,4,Word 11 of 12,1,Image 3 of 3,1,face,1
2002,practiceBlock,centre_mouse,24,839,reveal,Picture2.jpg,N_1.png,1,N_2.png,2,N_3.png,3,N_4.png,4,Y_1.png,1,Y_2.png,2,Y_3.png,3,Y_4.png,4,confidence.png,1,guessing.png,2,respond_yes.png,3,respond_no.png,4,Word 11 of 12,1,Image 3 of 3,1,reveal.png,5
