subject,blockcode,trialcode,trialnum,latency,response,values.imageName,stimulusitem1,stimulusnumber1,stimulusitem2,stimulusnumber2,stimulusitem3,stimulusnumber3,stimulusitem4,stimulusnumber4,stimulusitem5,stimulusnumber5,stimulusitem6,stimulusnumber6,stimulusitem7,stimulusnumber7,stimulusitem8,stimulusnumber8,stimulusitem9,stimulusnumber9,stimulusitem10,stimulusnumber10,stimulusitem11,stimulusnumber11,stimulusitem12,stimulusnumber12,stimulusitem13,stimulusnumber13,stimulusitem14,stimulusnumber14,stimulusitem15,stimulusnumber15
1,practiceBlock,practice,1,1,0,Picture1.jpg,+,1,Picture1.jpg,1,mask3.jpg,3,mask1.jpg,1,mask2.jpg,2,mask3.jpg,3,mask3.jpg,3,0,0,0,0,0,0,0,0,0,0,0,0,0,0,0,0
1,practiceBlock,centre_mouse,2,906,reveal,Picture1.jpg,N_1.png,1,N_2.png,2,N_3.png,3,N_4.png,4,Y_1.png,1,Y_2.png,2,Y_3.png,3,Y_4.png,4,confidence.png,1,guessing.png,2,respond_yes.png,3,respond_no.png,4,Word 0 of 12,1,Image 1 of 3,1,reveal.png,5
1,practiceBlock,practice_trial,3,784,yes_4,Picture1.jpg,N_1.png,1,N_2.png,2,N_3.png,3,N_4.png,4,Y_1.png,1,Y_2.png,2,Y_3.png,3,Y_4.png,4,confidence.png,1,guessing.png,2,respond_yes.png,3,respond_no.png,4,Word 1 of 12,1,Image 1 of 3,1,love,2
1,practiceBlock,centre_mouse,4,646,reveal,Picture1.jpg,N_1.png,1,N_2.png,2,N_3.png,3,N_4.png,4,Y_1.png,1,Y_2.png,2,Y_3.png,3,Y_4.png,4,confidence.png,1,guessing.png,2,respond_yes.png,3,respond_no.png,4,Word 1 of 12,1,Image 1 of 3,1,reveal.png,5
1,practiceBlock,practice_trial,5,1578,no_3,Picture1.jpg,N_1.png,1,N_2.png,2,N_3.png,3,N_4.png,4,Y_1.png,1,Y_2.png,2,Y_3.png,3,Y_4.png,4,confidence.png,1,guessing.png,2,respond_yes.png,3,respond_no.png,4,Word 2 of 12,1,Image 1 of 3,1,outline,5
1,practiceBlock,centre_mouse,6,377,reveal,Picture1.jpg,N_1.png,1,N_2.png,2,N_3.png,3,N_4.png,4,Y_1.png,1,Y_2.png,2,Y_3.png,3,Y_4.png,4,confidence.png,1,guessing.png,2,respond_yes.png,3,respond_no.png,4,Word 2 of 12,1,Image 1 of 3,1,reveal.png,5
1,practiceBlock,absent_trial,7,1210,no_4,Picture1.jpg,N_1.png,1,N_2.png,2,N_3.png,3,N_4.png,4,Y_1.png,1,Y_2.png,2,Y_3.png,3,Y_4.png,4,confidence.png,1,guessing.png,2,respond_yes.png,3,respond_no.png,4,Word 3 of 12,1,Image 1 of 3,1,suspicious,1079
1,practiceBlock,centre_mouse,8,442,reveal,Picture1.jpg,N_1.png,1,N_2.png,2,N_3.png,3,N_4.png,4,Y_1.png,1,Y_2.png,2,Y_3.png,3,Y_4.png,4,confidence.png,1,guessing.png,2,respond_yes.png,3,respond_no.png,4,Word 3 of 12,1,Image 1 of 3,1,reveal.png,5
1,practiceBlock,absent_trial,9,848,no_4,Picture1.jpg,N_1.png,1,N_2.png,2,N_3.png,3,N_4.png,4,Y_1.png,1,Y_2.png,2,Y_3.png,3,Y_4.png,4,confidence.png,1,guessing.png,2,respond_yes.png,3,respond_no.png,4,Word 4 of 12,1,Image 1 of 3,1,computer-chip,640
1,practiceBlock,centre_mouse,10,379,reveal,Picture1.jpg,N_1.png,1,N_2.png,2,N_3.png,3,N_4.png,4,Y_1.png,1,Y_2.png,2,Y_3.png,3,Y_4.png,4,confidence.png,1,guessing.png,2,respond_yes.png,3,respond_no.png,4,Word 4 of 12,1,Image 1 of 3,1,reveal.png,5
1,practiceBlock,absent_trial,11,761,no_4,Picture1.jpg,N_1.png,1,N_2.png,2,N_3.png,3,N_4.png,4,Y_1.png,1,Y_2.png,2,Y_3.png,3,Y_4.png,4,confidence.png,1,guessing.png,2,respond_yes.png,3,respond_no.png,4,Word 5 of 12,1,Image 1 of 3,1,grocery,43
1,practiceBlock,centre_mouse,12,366,reveal,Picture1.jpg,N_1.png,1,N_2.png,2,N_3.png,3,N_4.png,4,Y_1.png,1,Y_2.png,2,Y_3.png,3,Y_4.png,4,confidence.png,1,guessing.png,2,respond_yes.png,3,respond_no.png,4,Word 5 of 12,1,Image 1 of 3,1,reveal.png,5
1,practiceBlock,practice_trial,13,736,yes_4,Picture1.jpg,N_1.png,1,N_2.png,2,N_3.png,3,N_4.png,4,Y_1.png,1,Y_2.png,2,Y_3.png,3,Y_4.png,4,confidence.png,1,guessing.png,2,respond_yes.png,3,respond_no.png,4,Word 6 of 12,1,Image 1 of 3,1,color,6
1,practiceBlock,centre_mouse,14,335,reveal,Picture1.jpg,N_1.png,1,N_2.png,2,N_3.png,3,N_4.png,4,Y_1.png,1,Y_2.png,2,Y_3.png,3,Y_4.png,4,confidence.png,1,guessing.png,2,respond_yes.png,3,respond_no.png,4,Word 6 of 12,1,Image 1 of 3,1,reveal.png,5
1,practiceBlock,absent_trial,15,1335,no_4,Picture1.jpg,N_1.png,1,N_2.png,2,N_3.png,3,N_4.png,4,Y_1.png,1,Y_2.png,2,Y_3.png,3,Y_4.png,4,confidence.png,1,guessing.png,2,respond_yes.png,3,respond_no.png,4,Word 7 of 12,1,Image 1 of 3,1,woman-working,1981
1,practiceBlock,centre_mouse,16,457,reveal,Picture1.jpg,N_1.png,1,N_2.png,2,N_3.png,3,N_4.png,4,Y_1.png,1,Y_2.png,2,Y_3.png,3,Y_4.png,4,confidence.png,1,guessing.png,2,respond_yes.png,3,respond_no.png,4,Word 7 of 12,1,Image 1 of 3,1,reveal.png,5
1,practiceBlock,absent_trial,17,1464,no_4,Picture1.jpg,N_1.png,1,N_2.png,2,N_3.png,3,N_4.png,4,Y_1.png,1,Y_2.png,2,Y_3.png,3,Y_4.png,4,confidence.png,1,guessing.png,2,respond_yes.png,3,respond_no.png,4,Word 8 of 12,1,Image 1 of 3,1,black,312
1,practiceBlock,centre_mouse,18,369,reveal,Picture1.jpg,N_1.png,1,N_2.png,2,N_3.png,3,N_4.png,4,Y_1.png,1,Y_2.png,2,Y_3.png,3,Y_4.png,4,confidence.png,1,guessing.png,2,respond_yes.png,3,respond_no.png,4,Word 8 of 12,1,Image 1 of 3,1,reveal.png,5
1,practiceBlock,practice_trial,19,1448,yes_4,Picture1.jpg,N_1.png,1,N_2.png,2,N_3.png,3,N_4.png,4,Y_1.png,1,Y_2.png,2,Y_3.png,3,Y_4.png,4,confidence.png,1,guessing.png,2,respond_yes.png,3,respond_no.png,4,Word 9 of 12,1,Image 1 of 3,1,heart,1
1,practiceBlock,centre_mouse,20,498,reveal,Picture1.jpg,N_1.png,1,N_2.png,2,N_3.png,3,N_4.png,4,Y_1.png,1,Y_2.png,2,Y_3.png,3,Y_4.png,4,confidence.png,1,guessing.png,2,respond_yes.png,3,respond_no.png,4,Word 9 of 12,1,Image 1 of 3,1,reveal.png,5
1,practiceBlock,absent_trial,21,1524,no_3,Picture1.jpg,N_1.png,1,N_2.png,2,N_3.png,3,N_4.png,4,Y_1.png,1,Y_2.png,2,Y_3.png,3,Y_4.png,4,confidence.png,1,guessing.png,2,respond_yes.png,3,respond_no.png,4,Word 10 of 12,1,Image 1 of 3,1,open,231
1,practiceBlock,centre_mouse,22,417,reveal,Picture1.jpg,N_1.png,1,N_2.png,2,N_3.png,3,N_4.png,4,Y_1.png,1,Y_2.png,2,Y_3.png,3,Y_4.png,4,confidence.png,1,guessing.png,2,respond_yes.png,3,respond_no.png,4,Word 10 of 12,1,Image 1 of 3,1,reveal.png,5
1,practiceBlock,practice_trial,23,1109,yes_4,Picture1.jpg,N_1.png,1,N_2.png,2,N_3.png,3,N_4.png,4,Y_1.png,1,Y_2.png,2,Y_3.png,3,Y_4.png,4,confidence.png,1,guessing.png,2,respond_yes.png,3,respond_no.png,4,Word 11 of 12,1,Image 1 of 3,1,red,3
1,practiceBlock,centre_mouse,24,397,reveal,Picture1.jpg,N_1.png,1,N_2.png,2,N_3.png,3,N_4.png,4,Y_1.png,1,Y_2.png,2,Y_3.png,3,Y_4.png,4,confidence.png,1,guessing.png,2,respond_yes.png,3,respond_no.png,4,Word 11 of 12,1,Image 1 of 3,1,reveal.png,5
1,practiceBlock,practice_trial,25,1820,no_4,Picture1.jpg,N_1.png,1,N_2.png,2,N_3.png,3,N_4.png,4,Y_1.png,1,Y_2.png,2,Y_3.png,3,Y_4.png,4,confidence.png,1,guessing.png,2,respond_yes.png,3,respond_no.png,4,Word 12 of 12,1,Image 1 of 3,1,black,4
1,practiceBlock,centre_mouse,26,346,reveal,Picture1.jpg,N_1.png,1,N_2.png,2,N_3.png,3,N_4.png,4,Y_1.png,1,Y_2.png,2,Y_3.png,3,Y_4.png,4,confidence.png,1,guessing.png,2,respond_yes.png,3,respond_no.png,4,Word 12 of 12,1,Image 1 of 3,1,reveal.png,5
1,practiceBlock,practice,1,1,0,Picture1.jpg,+,1,Picture2.jpg,2,mask5.jpg,5,mask3.jpg,3,mask5.jpg,5,mask5.jpg,5,mask2.jpg,2,0,0,0,0,0,0,0,0,0,0,0,0,0,0,0,0
1,practiceBlock,centre_mouse,2,2109,reveal,Picture1.jpg,N_1.png,1,N_2.png,2,N_3.png,3,N_4.png,4,Y_1.png,1,Y_2.png,2,Y_3.png,3,Y_4.png,4,confidence.png,1,guessing.png,2,respond_yes.png,3,respond_no.png,4,Word 0 of 12,1,Image 2 of 3,1,reveal.png,5
1,practiceBlock,practice_trial,3,1061,yes_4,Picture2.jpg,N_1.png,1,N_2.png,2,N_3.png,3,N_4.png,4,Y_1.png,1,Y_2.png,2,Y_3.png,3,Y_4.png,4,confidence.png,1,guessing.png,2,respond_yes.png,3,respond_no.png,4,Word 1 of 12,1,Image 2 of 3,1,eyes,3
1,practiceBlock,centre_mouse,4,455,reveal,Picture2.jpg,N_1.png,1,N_2.png,2,N_3.png,3,N_4.png,4,Y_1.png,1,Y_2.png,2,Y_3.png,3,Y_4.png,4,confidence.png,1,guessing.png,2,respond_yes.png,3,respond_no.png,4,Word 1 of 12,1,Image 2 of 3,1,reveal.png,5
1,practiceBlock,practice_trial,5,810,yes_4,Picture2.jpg,N_1.png,1,N_2.png,2,N_3.png,3,N_4.png,4,Y_1.png,1,Y_2.png,2,Y_3.png,3,Y_4.png,4,confidence.png,1,guessing.png,2,respond_yes.png,3,respond_no.png,4,Word 2 of 12,1,Image 2 of 3,1,smile,4
1,practiceBlock,centre_mouse,6,342,reveal,Picture2.jpg,N_1.png,1,N_2.png,2,N_3.png,3,N_4.png,4,Y_1.png,1,Y_2.png,2,Y_3.png,3,Y_4.png,4,confidence.png,1,guessing.png,2,respond_yes.png,3,respond_no.png,4,Word 2 of 12,1,Image 2 of 3,1,reveal.png,5
1,practiceBlock,absent_trial,7,768,no_4,Picture2.jpg,N_1.png,1,N_2.png,2,N_3.png,3,N_4.png,4,Y_1.png,1,Y_2.png,2,Y_3.png,3,Y_4.png,4,confidence.png,1,guessing.png,2,respond_yes.png,3,respond_no.png,4,Word 3 of 12,1,Image 2 of 3,1,fire-hose,346
1,practiceBlock,centre_mouse,8,345,reveal,Picture2.jpg,N_1.png,1,N_2.png,2,N_3.png,3,N_4.png,4,Y_1.png,1,Y_2.png,2,Y_3.png,3,Y_4.png,4,confidence.png,1,guessing.png,2,respond_yes.png,3,respond_no.png,4,Word 3 of 12,1,Image 2 of 3,1,reveal.png,5
1,practiceBlock,practice_trial,9,1154,yes_4,Picture2.jpg,N_1.png,1,N_2.png,2,N_3.png,3,N_4.png,4,Y_1.png,1,Y_2.png,2,Y_3.png,3,Y_4.png,4,confidence.png,1,guessing.png,2,respond_yes.png,3,respond_no.png,4,Word 4 of 12,1,Image 2 of 3,1,face,1
1,practiceBlock,centre_mouse,10,449,reveal,Picture2.jpg,N_1.png,1,N_2.png,2,N_3.png,3,N_4.png,4,Y_1.png,1,Y_2.png,2,Y_3.png,3,Y_4.png,4,confidence.png,1,guessing.png,2,respond_yes.png,3,respond_no.png,4,Word 4 of 12,1,Image 2 of 3,1,reveal.png,5
1,practiceBlock,practice_trial,11,759,yes_4,Picture2.jpg,N_1.png,1,N_2.png,2,N_3.png,3,N_4.png,4,Y_1.png,1,Y_2.png,2,Y_3.png,3,Y_4.png,4,confidence.png,1,guessing.png,2,respond_yes.png,3,respond_no.png,4,Word 5 of 12,1,Image 2 of 3,1,emoji,6
1,practiceBlock,centre_mouse,12,474,reveal,Picture2.jpg,N_1.png,1,N_2.png,2,N_3.png,3,N_4.png,4,Y_1.png,1,Y_2.png,2,Y_3.png,3,Y_4.png,4,confidence.png,1,guessing.png,2,respond_yes.png,3,respond_no.png,4,Word 5 of 12,1,Image 2 of 3,1,reveal.png,5
1,practiceBlock,absent_trial,13,903,no_4,Picture2.jpg,N_1.png,1,N_2.png,2,N_3.png,3,N_4.png,4,Y_1.png,1,Y_2.png,2,Y_3.png,3,Y_4.png,4,confidence.png,1,guessing.png,2,respond_yes.png,3,respond_no.png,4,Word 6 of 12,1,Image 2 of 3,1,debate,2826
1,practiceBlock,centre_mouse,14,369,reveal,Picture2.jpg,N_1.png,1,N_2.png,2,N_3.png,3,N_4.png,4,Y_1.png,1,Y_2.png,2,Y_3.png,3,Y_4.png,4,confidence.png,1,guessing.png,2,respond_yes.png,3,respond_no.png,4,Word 6 of 12,1,Image 2 of 3,1,reveal.png,5
1,practiceBlock,absent_trial,15,1178,no_4,Picture2.jpg,N_1.png,1,N_2.png,2,N_3.png,3,N_4.png,4,Y_1.png,1,Y_2.png,2,Y_3.png,3,Y_4.png,4,confidence.png,1,guessing.png,2,respond_yes.png,3,respond_no.png,4,Word 7 of 12,1,Image 2 of 3,1,holding-hand,2570
1,practiceBlock,centre_mouse,16,749,reveal,Picture2.jpg,N_1.png,1,N_2.png,2,N_3.png,3,N_4.png,4,Y_1.png,1,Y_2.png,2,Y_3.png,3,Y_4.png,4,confidence.png,1,guessing.png,2,respond_yes.png,3,respond_no.png,4,Word 7 of 12,1,Image 2 of 3,1,reveal.png,5
1,practiceBlock,practice_trial,17,871,yes_4,Picture2.jpg,N_1.png,1,N_2.png,2,N_3.png,3,N_4.png,4,Y_1.png,1,Y_2.png,2,Y_3.png,3,Y_4.png,4,confidence.png,1,guessing.png,2,respond_yes.png,3,respond_no.png,4,Word 8 of 12,1,Image 2 of 3,1,happy,5
1,practiceBlock,centre_mouse,18,549,reveal,Picture2.jpg,N_1.png,1,N_2.png,2,N_3.png,3,N_4.png,4,Y_1.png,1,Y_2.png,2,Y_3.png,3,Y_4.png,4,confidence.png,1,guessing.png,2,respond_yes.png,3,respond_no.png,4,Word 8 of 12,1,Image 2 of 3,1,reveal.png,5
1,practiceBlock,practice_trial,19,1794,yes_4,Picture2.jpg,N_1.png,1,N_2.png,2,N_3.png,3,N_4.png,4,Y_1.png,1,Y_2.png,2,Y_3.png,3,Y_4.png,4,confidence.png,1,guessing.png,2,respond_yes.png,3,respond_no.png,4,Word 9 of 12,1,Image 2 of 3,1,yellow,2
1,practiceBlock,centre_mouse,20,534,reveal,Picture2.jpg,N_1.png,1,N_2.png,2,N_3.png,3,N_4.png,4,Y_1.png,1,Y_2.png,2,Y_3.png,3,Y_4.png,4,confidence.png,1,guessing.png,2,respond_yes.png,3,respond_no.png,4,Word 9 of 12,1,Image 2 of 3,1,reveal.png,5
1,practiceBlock,absent_trial,21,930,no_4,Picture2.jpg,N_1.png,1,N_2.png,2,N_3.png,3,N_4.png,4,Y_1.png,1,Y_2.png,2,Y_3.png,3,Y_4.png,4,confidence.png,1,guessing.png,2,respond_yes.png,3,respond_no.png,4,Word 10 of 12,1,Image 2 of 3,1,germ,2606
1,practiceBlock,centre_mouse,22,401,reveal,Picture2.jpg,N_1.png,1,N_2.png,2,N_3.png,3,N_4.png,4,Y_1.png,1,Y_2.png,2,Y_3.png,3,Y_4.png,4,confidence.png,1,guessing.png,2,respond_yes.png,3,respond_no.png,4,Word 10 of 12,1,Image 2 of 3,1,reveal.png,5
1,practiceBlock,absent_trial,23,2426,no_4,Picture2.jpg,N_1.png,1,N_2.png,2,N_3.png,3,N_4.png,4,Y_1.png,1,Y_2.png,2,Y_3.png,3,Y_4.png,4,confidence.png,1,guessing.png,2,respond_yes.png,3,respond_no.png,4,Word 11 of 12,1,Image 2 of 3,1,cup,1191
1,practiceBlock,centre_mouse,24,396,reveal,Picture2.jpg,N_1.png,1,N_2.png,2,N_3.png,3,N_4.png,4,Y_1.png,1,Y_2.png,2,Y_3.png,3,Y_4.png,4,confidence.png,1,guessing.png,2,respond_yes.png,3,respond_no.png,4,Word 11 of 12,1,Image 2 of 3,1,reveal.png,5
1,practiceBlock,absent_trial,25,819,no_4,Picture2.jpg,N_1.png,1,N_2.png,2,N_3.png,3,N_4.png,4,Y_1.png,1,Y_2.png,2,Y_3.png,3,Y_4.png,4,confidence.png,1,guessing.png,2,respond_yes.png,3,respond_no.png,4,Word 12 of 12,1,Image 2 of 3,1,sell,56
1,practiceBlock,centre_mouse,26,390,reveal,Picture2.jpg,N_1.png,1,N_2.png,2,N_3.png,3,N_4.png,4,Y_1.png,1,Y_2.png,2,Y_3.png,3,Y_4.png,4,confidence.png,1,guessing.png,2,respond_yes.png,3,respond_no.png,4,Word 12 of 12,1,Image 2 of 3,1,reveal.png,5
1,practiceBlock,practice,1,1,0,Picture2.jpg,+,1,Picture3.jpg,3,mask2.jpg,2,mask5.jpg,5,mask1.jpg,1,mask1.jpg,1,mask4.jpg,4,0,0,0,0,0,0,0,0,0,0,0,0,0,0,0,0
1,practiceBlock,centre_mouse,2,499,reveal,Picture2.jpg,N_1.png,1,N_2.png,2,N_3.png,3,N_4.png,4,Y_1.png,1,Y_2.png,2,Y_3.png,3,Y_4.png,4,confidence.png,1,guessing.png,2,respond_yes.png,3,respond_no.png,4,Word 0 of 12,1,Image 3 of 3,1,reveal.png,5
1,practiceBlock,absent_trial,3,2075,no_4,Picture2.jpg,N_1.png,1,N_2.png,2,N_3.png,3,N_4.png,4,Y_1.png,1,Y_2.png,2,Y_3.png,3,Y_4.png,4,confidence.png,1,guessing.png,2,respond_yes.png,3,respond_no.png,4,Word 1 of 12,1,Image 3 of 3,1,soak,2761
1,practiceBlock,centre_mouse,4,396,reveal,Picture2.jpg,N_1.png,1,N_2.png,2,N_3.png,3,N_4.png,4,Y_1.png,1,Y_2.png,2,Y_3.png,3,Y_4.png,4,confidence.png,1,guessing.png,2,respond_yes.png,3,respond_no.png,4,Word 1 of 12,1,Image 3 of 3,1,reveal.png,5
1,practiceBlock,absent_trial,5,897,no_4,Picture2.jpg,N_1.png,1,N_2.png,2,N_3.png,3,N_4.png,4,Y_1.png,1,Y_2.png,2,Y_3.png,3,Y_4.png,4,confidence.png,1,guessing.png,2,respond_yes.png,3,respond_no.png,4,Word 2 of 12,1,Image 3 of 3,1,ember,2659
1,practiceBlock,centre_mouse,6,683,reveal,Picture2.jpg,N_1.png,1,N_2.png,2,N_3.png,3,N_4.png,4,Y_1.png,1,Y_2.png,2,Y_3.png,3,Y_4.png,4,confidence.png,1,guessing.png,2,respond_yes.png,3,respond_no.png,4,Word 2 of 12,1,Image 3 of 3,1,reveal.png,5
1,practiceBlock,practice_trial,7,770,yes_4,Picture3.jpg,N_1.png,1,N_2.png,2,N_3.png,3,N_4.png,4,Y_1.png,1,Y_2.png,2,Y_3.png,3,Y_4.png,4,confidence.png,1,guessing.png,2,respond_yes.png,3,respond_no.png,4,Word 3 of 12,1,Image 3 of 3,1,landscape,4
1,practiceBlock,centre_mouse,8,720,reveal,Picture3.jpg,N_1.png,1,N_2.png,2,N_3.png,3,N_4.png,4,Y_1.png,1,Y_2.png,2,Y_3.png,3,Y_4.png,4,confidence.png,1,guessing.png,2,respond_yes.png,3,respond_no.png,4,Word 3 of 12,1,Image 3 of 3,1,reveal.png,5
1,practiceBlock,absent_trial,9,930,no_4,Picture3.jpg,N_1.png,1,N_2.png,2,N_3.png,3,N_4.png,4,Y_1.png,1,Y_2.png,2,Y_3.png,3,Y_4.png,4,confidence.png,1,guessing.png,2,respond_yes.png,3,respond_no.png,4,Word 4 of 12,1,Image 3 of 3,1,adobe,2578
1,practiceBlock,centre_mouse,10,329,reveal,Picture3.jpg,N_1.png,1,N_2.png,2,N_3.png,3,N_4.png,4,Y_1.png,1,Y_2.png,2,Y_3.png,3,Y_4.png,4,confidence.png,1,guessing.png,2,respond_yes.png,3,respond_no.png,4,Word 4 of 12,1,Image 3 of 3,1,reveal.png,5
1,practiceBlock,absent_trial,11,1279,no_3,Picture3.jpg,N_1.png,1,N_2.png,2,N_3.png,3,N_4.png,4,Y_1.png,1,Y_2.png,2,Y_3.png,3,Y_4.png,4,confidence.png,1,guessing.png,2,respond_yes.png,3,respond_no.png,4,Word 5 of 12,1,Image 3 of 3,1,triple,2901
1,practiceBlock,centre_mouse,12,367,reveal,Picture3.jpg,N_1.png,1,N_2.png,2,N_3.png,3,N_4.png,4,Y_1.png,1,Y_2.png,2,Y_3.png,3,Y_4.png,4,confidence.png,1,guessing.png,2,respond_yes.png,3,respond_no.png,4,Word 5 of 12,1,Image 3 of 3,1,reveal.png,5
1,practiceBlock,practice_trial,13,1355,yes_4,Picture3.jpg,N_1.png,1,N_2.png,2,N_3.png,3,N_4.png,4,Y_1.png,1,Y_2.png,2,Y_3.png,3,Y_4.png,4,confidence.png,1,guessing.png,2,respond_yes.png,3,respond_no.png,4,Word 6 of 12,1,Image 3 of 3,1,sky,6
1,practiceBlock,centre_mouse,14,574,reveal,Picture3.jpg,N_1.png,1,N_2.png,2,N_3.png,3,N_4.png,4,Y_1.png,1,Y_2.png,2,Y_3.png,3,Y_4.png,4,confidence.png,1,guessing.png,2,respond_yes.png,3,respond_no.png,4,Word 6 of 12,1,Image 3 of 3,1,reveal.png,5
1,practiceBlock,practice_trial,15,777,yes_4,Picture3.jpg,N_1.png,1,N_2.png,2,N_3.png,3,N_4.png,4,Y_1.png,1,Y_2.png,2,Y_3.png,3,Y_4.png,4,confidence.png,1,guessing.png,2,respond_yes.png,3,respond_no.png,4,Word 7 of 12,1,Image 3 of 3,1,mountain,1
1,practiceBlock,centre_mouse,16,546,reveal,Picture3.jpg,N_1.png,1,N_2.png,2,N_3.png,3,N_4.png,4,Y_1.png,1,Y_2.png,2,Y_3.png,3,Y_4.png,4,confidence.png,1,guessing.png,2,respond_yes.png,3,respond_no.png,4,Word 7 of 12,1,Image 3 of 3,1,reveal.png,5
1,practiceBlock,practice_trial,17,941,yes_4,Picture3.jpg,N_1.png,1,N_2.png,2,N_3.png,3,N_4.png,4,Y_1.png,1,Y_2.png,2,Y_3.png,3,Y_4.png,4,confidence.png,1,guessing.png,2,respond_yes.png,3,respond_no.png,4,Word 8 of 12,1,Image 3 of 3,1,blue,5
1,practiceBlock,centre_mouse,18,362,reveal,Picture3.jpg,N_1.png,1,N_2.png,2,N_3.png,3,N_4.png,4,Y_1.png,1,Y_2.png,2,Y_3.png,3,Y_4.png,4,confidence.png,1,guessing.png,2,respond_yes.png,3,respond_no.png,4,Word 8 of 12,1,Image 3 of 3,1,reveal.png,5
1,practiceBlock,absent_trial,19,2831,no_4,Picture3.jpg,N_1.png,1,N_2.png,2,N_3.png,3,N_4.png,4,Y_1.png,1,Y_2.png,2,Y_3.png,3,Y_4.png,4,confidence.png,1,guessing.png,2,respond_yes.png,3,respond_no.png,4,Word 9 of 12,1,Image 3 of 3,1,office-room,3076
1,practiceBlock,centre_mouse,20,378,reveal,Picture3.jpg,N_1.png,1,N_2.png,2,N_3.png,3,N_4.png,4,Y_1.png,1,Y_2.png,2,Y_3.png,3,Y_4.png,4,confidence.png,1,guessing.png,2,respond_yes.png,3,respond_no.png,4,Word 9 of 12,1,Image 3 of 3,1,reveal.png,5
1,practiceBlock,practice_trial,21,760,yes_4,Picture3.jpg,N_1.png,1,N_2.png,2,N_3.png,3,N_4.png,4,Y_1.png,1,Y_2.png,2,Y_3.png,3,Y_4.png,4,confidence.png,1,guessing.png,2,respond_yes.png,3,respond_no.png,4,Word 10 of 12,1,Image 3 of 3,1,sun,2
1,practiceBlock,centre_mouse,22,321,reveal,Picture3.jpg,N_1.png,1,N_2.png,2,N_3.png,3,N_4.png,4,Y_1.png,1,Y_2.png,2,Y_3.png,3,Y_4.png,4,confidence.png,1,guessing.png,2,respond_yes.png,3,respond_no.png,4,Word 10 of 12,1,Image 3 of 3,1,reveal.png,5
1,practiceBlock,absent_trial,23,729,no_4,Picture3.jpg,N_1.png,1,N_2.png,2,N_3.png,3,N_4.png,4,Y_1.png,1,Y_2.png,2,Y_3.png,3,Y_4.png,4,confidence.png,1,guessing.png,2,respond_yes.png,3,respond_no.png,4,Word 11 of 12,1,Image 3 of 3,1,firefighter,2252
1,practiceBlock,centre_mouse,24,333,reveal,Picture3.jpg,N_1.png,1,N_2.png,2,N_3.png,3,N_4.png,4,Y_1.png,1,Y_2.png,2,Y_3.png,3,Y_4.png,4,confidence.png,1,guessing.png,2,respond_yes.png,3,respond_no.png,4,Word 11 of 12,1,Image 3 of 3,1,reveal.png,5
1,practiceBlock,practice_trial,25,781,yes_4,Picture3.jpg,N_1.png,1,N_2.png,2,N_3.png,3,N_4.png,4,Y_1.png,1,Y_2.png,2,Y_3.png,3,Y_4.png,4,confidence.png,1,guessing.png,2,respond_yes.png,3,respond_no.png,4,Word 12 of 12,1,Image 3 of 3,1,cloud,3
1,practiceBlock,centre_mouse,26,319,reveal,Picture3.jpg,N_1.png,1,N_2.png,2,N_3.png,3,N_4.png,4,Y_1.png,1,Y_2.png,2,Y_3.png,3,Y_4.png,4,confidence.png,1,guessing.png,2,respond_yes.png,3,respond_no.png,4,Word 12 of 12,1,Image 3 of 3,1,reveal.png,5
1,reset,reset,1,200,0,Picture3.jpg,0,0,0,0,0,0,0,0,0,0,0,0,0,0,0,0,0,0,0,0,0,0,0,0,0,0,0,0,0,0
1,testBlock,test,1,1,0,im0000041.jpg,+,1,im0000050.jpg,2,mask1.jpg,1,mask4.jpg,4,mask4.jpg,4,mask2.jpg,2,mask1.jpg,1,0,0,0,0,0,0,0,0,0,0,0,0,0,0,0,0
1,testBlock,centre_mouse,2,672,reveal,im0000041.jpg,N_1.png,1,N_2.png,2,N_3.png,3,N_4.png,4,Y_1.png,1,Y_2.png,2,Y_3.png,3,Y_4.png,4,confidence.png,1,guessing.png,2,respond_yes.png,3,respond_no.png,4,Word 0 of 80,1,Image 1 of 5,1,reveal.png,5
1,testBlock,present_trial,3,1384,yes_4,im0000050.jpg,N_1.png,1,N_2.png,2,N_3.png,3,N_4.png,4,Y_1.png,1,Y_2.png,2,Y_3.png,3,Y_4.png,4,confidence.png,1,guessing.png,2,respond_yes.png,3,respond_no.png,4,Word 1 of 80,1,Image 1 of 5,1,banana,10
1,testBlock,centre_mouse,4,410,reveal,im0000050.jpg,N_1.png,1,N_2.png,2,N_3.png,3,N_4.png,4,Y_1.png,1,Y_2.png,2,Y_3.png,3,Y_4.png,4,confidence.png,1,guessing.png,2,respond_yes.png,3,respond_no.png,4,Word 1 of 80,1,Image 1 of 5,1,reveal.png,5
1,testBlock,present_trial,5,1254,yes_4,im0000050.jpg,N_1.png,1,N_2.png,2,N_3.png,3,N_4.png,4,Y_1.png,1,Y_2.png,2,Y_3.png,3,Y_4.png,4,confidence.png,1,guessing.png,2,respond_yes.png,3,respond_no.png,4,Word 2 of 80,1,Image 1 of 5,1,human,17
1,testBlock,centre_mouse,6,574,reveal,im0000050.jpg,N_1.png,1,N_2.png,2,N_3.png,3,N_4.png,4,Y_1.png,1,Y_2.png,2,Y_3.png,3,Y_4.png,4,confidence.png,1,guessing.png,2,respond_yes.png,3,respond_no.png,4,Word 2 of 80,1,Image 1 of 5,1,reveal.png,5
1,testBlock,absent_trial,7,2959,no_2,im0000050.jpg,N_1.png,1,N_2.png,2,N_3.png,3,N_4.png,4,Y_1.png,1,Y_2.png,2,Y_3.png,3,Y_4.png,4,confidence.png,1,guessing.png,2,respond_yes.png,3,respond_no.png,4,Word 3 of 80,1,Image 1 of 5,1,hollow,3219
1,testBlock,centre_mouse,8,486,reveal,im0000050.jpg,N_1.png,1,N_2.png,2,N_3.png,3,N_4.png,4,Y_1.png,1,Y_2.png,2,Y_3.png,3,Y_4.png,4,confidence.png,1,guessing.png,2,respond_yes.png,3,respond_no.png,4,Word 3 of 80,1,Image 1 of 5,1,reveal.png,5
1,testBlock,present_trial,9,1607,yes_2,im0000050.jpg,N_1.png,1,N_2.png,2,N_3.png,3,N_4.png,4,Y_1.png,1,Y_2.png,2,Y_3.png,3,Y_4.png,4,confidence.png,1,guessing.png,2,respond_yes.png,3,respond_no.png,4,Word 4 of 80,1,Image 1 of 5,1,plum,33
1,testBlock,centre_mouse,10,530,reveal,im0000050.jpg,N_1.png,1,N_2.png,2,N_3.png,3,N_4.png,4,Y_1.png,1,Y_2.png,2,Y_3.png,3,Y_4.png,4,confidence.png,1,guessing.png,2,respond_yes.png,3,respond_no.png,4,Word 4 of 80,1,Image 1 of 5,1,reveal.png,5
1,testBlock,absent_trial,11,1004,no_4,im0000050.jpg,N_1.png,1,N_2.png,2,N_3.png,3,N_4.png,4,Y_1.png,1,Y_2.png,2,Y_3.png,3,Y_4.png,4,confidence.png,1,guessing.png,2,respond_yes.png,3,respond_no.png,4,Word 5 of 80,1,Image 1 of 5,1,ice-skate,3354
1,testBlock,centre_mouse,12,381,reveal,im0000050.jpg,N_1.png,1,N_2.png,2,N_3.png,3,N_4.png,4,Y_1.png,1,Y_2.png,2,Y_3.png,3,Y_4.png,4,confidence.png,1,guessing.png,2,respond_yes.png,3,respond_no.png,4,Word 5 of 80,1,Image 1 of 5,1,reveal.png,5
1,testBlock,absent_trial,13,1359,no_4,im0000050.jpg,N_1.png,1,N_2.png,2,N_3.png,3,N_4.png,4,Y_1.png,1,Y_2.png,2,Y_3.png,3,Y_4.png,4,confidence.png,1,guessing.png,2,respond_yes.png,3,respond_no.png,4,Word 6 of 80,1,Image 1 of 5,1,cemetery,915
1,testBlock,centre_mouse,14,329,reveal,im0000050.jpg,N_1.png,1,N_2.png,2,N_3.png,3,N_4.png,4,Y_1.png,1,Y_2.png,2,Y_3.png,3,Y_4.png,4,confidence.png,1,guessing.png,2,respond_yes.png,3,respond_no.png,4,Word 6 of 80,1,Image 1 of 5,1,reveal.png,5
1,testBlock,absent_trial,15,874,no_4,im0000050.jpg,N_1.png,1,N_2.png,2,N_3.png,3,N_4.png,4,Y_1.png,1,Y_2.png,2,Y_3.png,3,Y_4.png,4,confidence.png,1,guessing.png,2,respond_yes.png,3,respond_no.png,4,Word 7 of 80,1,Image 1 of 5,1,wagon,726
1,testBlock,centre_mouse,16,339,reveal,im0000050.jpg,N_1.png,1,N_2.png,2,N_3.png,3,N_4.png,4,Y_1.png,1,Y_2.png,2,Y_3.png,3,Y_4.png,4,confidence.png,1,guessing.png,2,respond_yes.png,3,respond_no.png,4,Word 7 of 80,1,Image 1 of 5,1,reveal.png,5
1,testBlock,present_trial,17,1396,yes_3,im0000050.jpg,N_1.png,1,N_2.png,2,N_3.png,3,N_4.png,4,Y_1.png,1,Y_2.png,2,Y_3.png,3,Y_4.png,4,confidence.png,1,guessing.png,2,respond_yes.png,3,respond_no.png,4,Word 8 of 80,1,Image 1 of 5,1,sale,45
1,testBlock,centre_mouse,18,310,reveal,im0000050.jpg,N_1.png,1,N_2.png,2,N_3.png,3,N_4.png,4,Y_1.png,1,Y_2.png,2,Y_3.png,3,Y_4.png,4,confidence.png,1,guessing.png,2,respond_yes.png,3,respond_no.png,4,Word 8 of 80,1,Image 1 of 5,1,reveal.png,5
1,testBlock,present_trial,19,2153,yes_2,im0000050.jpg,N_1.png,1,N_2.png,2,N_3.png,3,N_4.png,4,Y_1.png,1,Y_2.png,2,Y_3.png,3,Y_4.png,4,confidence.png,1,guessing.png,2,respond_yes.png,3,respond_no.png,4,Word 9 of 80,1,Image 1 of 5,1,crowd,13
1,testBlock,centre_mouse,20,673,reveal,im0000050.jpg,N_1.png,1,N_2.png,2,N_3.png,3,N_4.png,4,Y_1.png,1,Y_2.png,2,Y_3.png,3,Y_4.png,4,confidence.png,1,guessing.png,2,respond_yes.png,3,respond_no.png,4,Word 9 of 80,1,Image 1 of 5,1,reveal.png,5
1,testBlock,present_trial,21,901,yes_4,im0000050.jpg,N_1.png,1,N_2.png,2,N_3.png,3,N_4.png,4,Y_1.png,1,Y_2.png,2,Y_3.png,3,Y_4.png,4,confidence.png,1,guessing.png,2,respond_yes.png,3,respond_no.png,4,Word 10 of 80,1,Image 1 of 5,1,fruit-shop,52
1,testBlock,centre_mouse,22,400,reveal,im0000050.jpg,N_1.png,1,N_2.png,2,N_3.png,3,N_4.png,4,Y_1.png,1,Y_2.png,2,Y_3.png,3,Y_4.png,4,confidence.png,1,guessing.png,2,respond_yes.png,3,respond_no.png,4,Word 10 of 80,1,Image 1 of 5,1,reveal.png,5
1,testBlock,absent_trial,23,738,no_4,im0000050.jpg,N_1.png,1,N_2.png,2,N_3.png,3,N_4.png,4,Y_1.png,1,Y_2.png,2,Y_3.png,3,Y_4.png,4,confidence.png,1,guessing.png,2,respond_yes.png,3,respond_no.png,4,Word 11 of 80,1,Image 1 of 5,1,roller-skate,2411
1,testBlock,centre_mouse,24,597,reveal,im0000050.jpg,N_1.png,1,N_2.png,2,N_3.png,3,N_4.png,4,Y_1.png,1,Y_2.png,2,Y_3.png,3,Y_4.png,4,confidence.png,1,guessing.png,2,respond_yes.png,3,respond_no.png,4,Word 11 of 80,1,Image 1 of 5,1,reveal.png,5
1,testBlock,present_trial,25,1604,no_4,im0000050.jpg,N_1.png,1,N_2.png,2,N_3.png,3,N_4.png,4,Y_1.png,1,Y_2.png,2,Y_3.png,3,Y_4.png,4,confidence.png,1,guessing.png,2,respond_yes.png,3,respond_no.png,4,Word 12 of 80,1,Image 1 of 5,1,saoorow,19
1,testBlock,centre_mouse,26,414,reveal,im0000050.jpg,N_1.png,1,N_2.png,2,N_3.png,3,N_4.png,4,Y_1.png,1,Y_2.png,2,Y_3.png,3,Y_4.png,4,confidence.png,1,guessing.png,2,respond_yes.png,3,respond_no.png,4,Word 12 of 80,1,Image 1 of 5,1,reveal.png,5
1,testBlock,present_trial,27,2164,yes_4,im0000050.jpg,N_1.png,1,N_2.png,2,N_3.png,3,N_4.png,4,Y_1.png,1,Y_2.png,2,Y_3.png,3,Y_4.png,4,confidence.png,1,guessing.png,2,respond_yes.png,3,respond_no.png,4,Word 13 of 80,1,Image 1 of 5,1,store,8
1,testBlock,centre_mouse,28,334,reveal,im0000050.jpg,N_1.png,1,N_2.png,2,N_3.png,3,N_4.png,4,Y_1.png,1,Y_2.png,2,Y_3.png,3,Y_4.png,4,confidence.png,1,guessing.png,2,respond_yes.png,3,respond_no.png,4,Word 13 of 80,1,Image 1 of 5,1,reveal.png,5
1,testBlock,absent_trial,29,1120,no_3,im0000050.jpg,N_1.png,1,N_2.png,2,N_3.png,3,N_4.png,4,Y_1.png,1,Y_2.png,2,Y_3.png,3,Y_4.png,4,confidence.png,1,guessing.png,2,respond_yes.png,3,respond_no.png,4,Word 14 of 80,1,Image 1 of 5,1,mist,1038
1,testBlock,centre_mouse,30,572,reveal,im0000050.jpg,N_1.png,1,N_2.png,2,N_3.png,3,N_4.png,4,Y_1.png,1,Y_2.png,2,Y_3.png,3,Y_4.png,4,confidence.png,1,guessing.png,2,respond_yes.png,3,respond_no.png,4,Word 14 of 80,1,Image 1 of 5,1,reveal.png,5
1,testBlock,absent_trial,31,2306,no_2,im0000050.jpg,N_1.png,1,N_2.png,2,N_3.png,3,N_4.png,4,Y_1.png,1,Y_2.png,2,Y_3.png,3,Y_4.png,4,confidence.png,1,guessing.png,2,respond_yes.png,3,respond_no.png,4,Word 15 of 80,1,Image 1 of 5,1,relaxation,2702
1,testBlock,centre_mouse,32,361,reveal,im0000050.jpg,N_1.png,1,N_2.png,2,N_3.png,3,N_4.png,4,Y_1.png,1,Y_2.png,2,Y_3.png,3,Y_4.png,4,confidence.png,1,guessing.png,2,respond_yes.png,3,respond_no.png,4,Word 15 of 80,1,Image 1 of 5,1,reveal.png,5
1,testBlock,absent_trial,33,1367,no_4,im0000050.jpg,N_1.png,1,N_2.png,2,N_3.png,3,N_4.png,4,Y_1.png,1,Y_2.png,2,Y_3.png,3,Y_4.png,4,confidence.png,1,guessing.png,2,respond_yes.png,3,respond_no.png,4,Word 16 of 80,1,Image 1 of 5,1,base,2669
1,testBlock,centre_mouse,34,591,reveal,im0000050.jpg,N_1.png,1,N_2.png,2,N_3.png,3,N_4.png,4,Y_1.png,1,Y_2.png,2,Y_3.png,3,Y_4.png,4,confidence.png,1,guessing.png,2,respond_yes.png,3,respond_no.png,4,Word 16 of 80,1,Image 1 of 5,1,reveal.png,5
1,testBlock,present_trial,35,1633,yes_2,im0000050.jpg,N_1.png,1,N_2.png,2,N_3.png,3,N_4.png,4,Y_1.png,1,Y_2.png,2,Y_3.png,3,Y_4.png,4,confidence.png,1,guessing.png,2,respond_yes.png,3,respond_no.png,4,Word 17 of 80,1,Image 1 of 5,1,laugh,40
1,testBlock,centre_mouse,36,354,reveal,im0000050.jpg,N_1.png,1,N_2.png,2,N_3.png,3,N_4.png,4,Y_1.png,1,Y_2.png,2,Y_3.png,3,Y_4.png,4,confidence.png,1,guessing.png,2,respond_yes.png,3,respond_no.png,4,Word 17 of 80,1,Image 1 of 5,1,reveal.png,5
1,testBlock,absent_trial,37,1665,no_2,im0000050.jpg,N_1.png,1,N_2.png,2,N_3.png,3,N_4.png,4,Y_1.png,1,Y_2.png,2,Y_3.png,3,Y_4.png,4,confidence.png,1,guessing.png,2,respond_yes.png,3,respond_no.png,4,Word 18 of 80,1,Image 1 of 5,1,luster,3396
1,testBlock,centre_mouse,38,436,reveal,im0000050.jpg,N_1.png,1,N_2.png,2,N_3.png,3,N_4.png,4,Y_1.png,1,Y_2.png,2,Y_3.png,3,Y_4.png,4,confidence.png,1,guessing.png,2,respond_yes.png,3,respond_no.png,4,Word 18 of 80,1,Image 1 of 5,1,reveal.png,5
1,testBlock,present_trial,39,1673,yes_3,im0000050.jpg,N_1.png,1,N_2.png,2,N_3.png,3,N_4.png,4,Y_1.png,1,Y_2.png,2,Y_3.png,3,Y_4.png,4,confidence.png,1,guessing.png,2,respond_yes.png,3,respond_no.png,4,Word 19 of 80,1,Image 1 of 5,1,vendor,22
1,testBlock,centre_mouse,40,394,reveal,im0000050.jpg,N_1.png,1,N_2.png,2,N_3.png,3,N_4.png,4,Y_1.png,1,Y_2.png,2,Y_3.png,3,Y_4.png,4,confidence.png,1,guessing.png,2,respond_yes.png,3,respond_no.png,4,Word 19 of 80,1,Image 1 of 5,1,reveal.png,5
1,testBlock,present_trial,41,1649,yes_3,im0000050.jpg,N_1.png,1,N_2.png,2,N_3.png,3,N_4.png,4,Y_1.png,1,Y_2.png,2,Y_3.png,3,Y_4.png,4,confidence.png,1,guessing.png,2,respond_yes.png,3,respond_no.png,4,Word 20 of 80,1,Image 1 of 5,1,old-person,28
1,testBlock,centre_mouse,42,802,reveal,im0000050.jpg,N_1.png,1,N_2.png,2,N_3.png,3,N_4.png,4,Y_1.png,1,Y_2.png,2,Y_3.png,3,Y_4.png,4,confidence.png,1,guessing.png,2,respond_yes.png,3,respond_no.png,4,Word 20 of 80,1,Image 1 of 5,1,reveal.png,5
1,testBlock,absent_trial,43,2933,no_4,im0000050.jpg,N_1.png,1,N_2.png,2,N_3.png,3,N_4.png,4,Y_1.png,1,Y_2.png,2,Y_3.png,3,Y_4.png,4,confidence.png,1,guessing.png,2,respond_yes.png,3,respond_no.png,4,Word 21 of 80,1,Image 1 of 5,1,skirt,845
1,testBlock,centre_mouse,44,343,reveal,im0000050.jpg,N_1.png,1,N_2.png,2,N_3.png,3,N_4.png,4,Y_1.png,1,Y_2.png,2,Y_3.png,3,Y_4.png,4,confidence.png,1,guessing.png,2,respond_yes.png,3,respond_no.png,4,Word 21 of 80,1,Image 1 of 5,1,reveal.png,5
1,testBlock,present_trial,45,950,yes_4,im0000050.jpg,N_1.png,1,N_2.png,2,N_3.png,3,N_4.png,4,Y_1.png,1,Y_2.png,2,Y_3.png,3,Y_4.png,4,confidence.png,1,guessing.png,2,respond_yes.png,3,respond_no.png,4,Word 22 of 80,1,Image 1 of 5,1,person,14
1,testBlock,centre_mouse,46,364,reveal,im0000050.jpg,N_1.png,1,N_2.png,2,N_3.png,3,N_4.png,4,Y_1.png,1,Y_2.png,2,Y_3.png,3,Y_4.png,4,confidence.png,1,guessing.png,2,respond_yes.png,3,respond_no.png,4,Word 22 of 80,1,Image 1 of 5,1,reveal.png,5
1,testBlock,absent_trial,47,1489,yes_4,im0000050.jpg,N_1.png,1,N_2.png,2,N_3.png,3,N_4.png,4,Y_1.png,1,Y_2.png,2,Y_3.png,3,Y_4.png,4,confidence.png,1,guessing.png,2,respond_yes.png,3,respond_no.png,4,Word 23 of 80,1,Image 1 of 5,1,whitewater,1951
1,testBlock,centre_mouse,48,765,reveal,im0000050.jpg,N_1.png,1,N_2.png,2,N_3.png,3,N_4.png,4,Y_1.png,1,Y_2.png,2,Y_3.png,3,Y_4.png,4,confidence.png,1,guessing.png,2,respond_yes.png,3,respond_no.png,4,Word 23 of 80,1,Image 1 of 5,1,reveal.png,5
1,testBlock,present_trial,49,1038,Ctrl+'Q',im0000050.jpg,N_1.png,1,N_2.png,2,N_3.png,3,N_4.png,4,Y_1.png,1,Y_2.png,2,Y_3.png,3,Y_4.png,4,confidence.png,1,guessing.png,2,respond_yes.png,3,respond_no.png,4,Word 24 of 80,1,Image 1 of 5,1,shop,3
A3GIIL73GE2CBQ,practiceBlock,practice,1,0,0,Picture1.jpg,+,1,Picture1.jpg,1,mask5.jpg,5,mask2.jpg,2,mask3.jpg,3,mask1.jpg,1,mask5.jpg,5,0,0,0,0,0,0,0,0,0,0,0,0,0,0,0,0
A3GIIL73GE2CBQ,practiceBlock,centre_mouse,2,8358,reveal,Picture1.jpg,N_1.png,1,N_2.png,2,N_3.png,3,N_4.png,4,Y_1.png,1,Y_2.png,2,Y_3.png,3,Y_4.png,4,confidence.png,1,guessing.png,2,respond_yes.png,3,respond_no.png,4,Word 0 of 12,1,Image 1 of 3,1,reveal.png,5
A3GIIL73GE2CBQ,practiceBlock,practice_trial,3,5755,no_4,Picture1.jpg,N_1.png,1,N_2.png,2,N_3.png,3,N_4.png,4,Y_1.png,1,Y_2.png,2,Y_3.png,3,Y_4.png,4,confidence.png,1,guessing.png,2,respond_yes.png,3,respond_no.png,4,Word 1 of 12,1,Image 1 of 3,1,black,4
A3GIIL73GE2CBQ,practiceBlock,centre_mouse,4,1047,reveal,Picture1.jpg,N_1.png,1,N_2.png,2,N_3.png,3,N_4.png,4,Y_1.png,1,Y_2.png,2,Y_3.png,3,Y_4.png,4,confidence.png,1,guessing.png,2,respond_yes.png,3,respond_no.png,4,Word 1 of 12,1,Image 1 of 3,1,reveal.png,5
A3GIIL73GE2CBQ,practiceBlock,practice_trial,5,2446,yes_2,Picture1.jpg,N_1.png,1,N_2.png,2,N_3.png,3,N_4.png,4,Y_1.png,1,Y_2.png,2,Y_3.png,3,Y_4.png,4,confidence.png,1,guessing.png,2,respond_yes.png,3,respond_no.png,4,Word 2 of 12,1,Image 1 of 3,1,color,6
A3GIIL73GE2CBQ,practiceBlock,centre_mouse,6,579,reveal,Picture1.jpg,N_1.png,1,N_2.png,2,N_3.png,3,N_4.png,4,Y_1.png,1,Y_2.png,2,Y_3.png,3,Y_4.png,4,confidence.png,1,guessing.png,2,respond_yes.png,3,respond_no.png,4,Word 2 of 12,1,Image 1 of 3,1,reveal.png,5
A3GIIL73GE2CBQ,practiceBlock,absent_trial,7,3876,no_4,Picture1.jpg,N_1.png,1,N_2.png,2,N_3.png,3,N_4.png,4,Y_1.png,1,Y_2.png,2,Y_3.png,3,Y_4.png,4,confidence.png,1,guessing.png,2,respond_yes.png,3,respond_no.png,4,Word 3 of 12,1,Image 1 of 3,1,helpless,1629
A3GIIL73GE2CBQ,practiceBlock,centre_mouse,8,1250,reveal,Picture1.jpg,N_1.png,1,N_2.png,2,N_3.png,3,N_4.png,4,Y_1.png,1,Y_2.png,2,Y_3.png,3,Y_4.png,4,confidence.png,1,guessing.png,2,respond_yes.png,3,respond_no.png,4,Word 3 of 12,1,Image 1 of 3,1,reveal.png,5
A3GIIL73GE2CBQ,practiceBlock,practice_trial,9,1623,yes_4,Picture1.jpg,N_1.png,1,N_2.png,2,N_3.png,3,N_4.png,4,Y_1.png,1,Y_2.png,2,Y_3.png,3,Y_4.png,4,confidence.png,1,guessing.png,2,respond_yes.png,3,respond_no.png,4,Word 4 of 12,1,Image 1 of 3,1,red,3
A3GIIL73GE2CBQ,practiceBlock,centre_mouse,10,784,reveal,Picture1.jpg,N_1.png,1,N_2.png,2,N_3.png,3,N_4.png,4,Y_1.png,1,Y_2.png,2,Y_3.png,3,Y_4.png,4,confidence.png,1,guessing.png,2,respond_yes.png,3,respond_no.png,4,Word 4 of 12,1,Image 1 of 3,1,reveal.png,5
A3GIIL73GE2CBQ,practiceBlock,practice_trial,11,1051,yes_4,Picture1.jpg,N_1.png,1,N_2.png,2,N_3.png,3,N_4.png,4,Y_1.png,1,Y_2.png,2,Y_3.png,3,Y_4.png,4,confidence.png,1,guessing.png,2,respond_yes.png,3,respond_no.png,4,Word 5 of 12,1,Image 1 of 3,1,love,2
A3GIIL73GE2CBQ,practiceBlock,centre_mouse,12,628,reveal,Picture1.jpg,N_1.png,1,N_2.png,2,N_3.png,3,N_4.png,4,Y_1.png,1,Y_2.png,2,Y_3.png,3,Y_4.png,4,confidence.png,1,guessing.png,2,respond_yes.png,3,respond_no.png,4,Word 5 of 12,1,Image 1 of 3,1,reveal.png,5
A3GIIL73GE2CBQ,practiceBlock,practice_trial,13,2717,yes_2,Picture1.jpg,N_1.png,1,N_2.png,2,N_3.png,3,N_4.png,4,Y_1.png,1,Y_2.png,2,Y_3.png,3,Y_4.png,4,confidence.png,1,guessing.png,2,respond_yes.png,3,respond_no.png,4,Word 6 of 12,1,Image 1 of 3,1,outline,5
A3GIIL73GE2CBQ,practiceBlock,centre_mouse,14,940,reveal,Picture1.jpg,N_1.png,1,N_2.png,2,N_3.png,3,N_4.png,4,Y_1.png,1,Y_2.png,2,Y_3.png,3,Y_4.png,4,confidence.png,1,guessing.png,2,respond_yes.png,3,respond_no.png,4,Word 6 of 12,1,Image 1 of 3,1,reveal.png,5
A3GIIL73GE2CBQ,practiceBlock,absent_trial,15,3697,no_3,Picture1.jpg,N_1.png,1,N_2.png,2,N_3.png,3,N_4.png,4,Y_1.png,1,Y_2.png,2,Y_3.png,3,Y_4.png,4,confidence.png,1,guessing.png,2,respond_yes.png,3,respond_no.png,4,Word 7 of 12,1,Image 1 of 3,1,middle-eastern,1274
A3GIIL73GE2CBQ,practiceBlock,centre_mouse,16,540,reveal,Picture1.jpg,N_1.png,1,N_2.png,2,N_3.png,3,N_4.png,4,Y_1.png,1,Y_2.png,2,Y_3.png,3,Y_4.png,4,confidence.png,1,guessing.png,2,respond_yes.png,3,respond_no.png,4,Word 7 of 12,1,Image 1 of 3,1,reveal.png,5
A3GIIL73GE2CBQ,practiceBlock,absent_trial,17,2450,no_4,Picture1.jpg,N_1.png,1,N_2.png,2,N_3.png,3,N_4.png,4,Y_1.png,1,Y_2.png,2,Y_3.png,3,Y_4.png,4,confidence.png,1,guessing.png,2,respond_yes.png,3,respond_no.png,4,Word 8 of 12,1,Image 1 of 3,1,boat,109
A3GIIL73GE2CBQ,practiceBlock,centre_mouse,18,1264,reveal,Picture1.jpg,N_1.png,1,N_2.png,2,N_3.png,3,N_4.png,4,Y_1.png,1,Y_2.png,2,Y_3.png,3,Y_4.png,4,confidence.png,1,guessing.png,2,respond_yes.png,3,respond_no.png,4,Word 8 of 12,1,Image 1 of 3,1,reveal.png,5
A3GIIL73GE2CBQ,practiceBlock,absent_trial,19,4375,no_4,Picture1.jpg,N_1.png,1,N_2.png,2,N_3.png,3,N_4.png,4,Y_1.png,1,Y_2.png,2,Y_3.png,3,Y_4.png,4,confidence.png,1,guessing.png,2,respond_yes.png,3,respond_no.png,4,Word 9 of 12,1,Image 1 of 3,1,sport-t-shirt,1049
A3GIIL73GE2CBQ,practiceBlock,centre_mouse,20,1000,reveal,Picture1.jpg,N_1.png,1,N_2.png,2,N_3.png,3,N_4.png,4,Y_1.png,1,Y_2.png,2,Y_3.png,3,Y_4.png,4,confidence.png,1,guessing.png,2,respond_yes.png,3,respond_no.png,4,Word 9 of 12,1,Image 1 of 3,1,reveal.png,5
A3GIIL73GE2CBQ,practiceBlock,absent_trial,21,1378,no_4,Picture1.jpg,N_1.png,1,N_2.png,2,N_3.png,3,N_4.png,4,Y_1.png,1,Y_2.png,2,Y_3.png,3,Y_4.png,4,confidence.png,1,guessing.png,2,respond_yes.png,3,respond_no.png,4,Word 10 of 12,1,Image 1 of 3,1,sand,98
A3GIIL73GE2CBQ,practiceBlock,centre_mouse,22,1984,reveal,Picture1.jpg,N_1.png,1,N_2.png,2,N_3.png,3,N_4.png,4,Y_1.png,1,Y_2.png,2,Y_3.png,3,Y_4.png,4,confidence.png,1,guessing.png,2,respond_yes.png,3,respond_no.png,4,Word 10 of 12,1,Image 1 of 3,1,reveal.png,5
A3GIIL73GE2CBQ,practiceBlock,practice_trial,23,1177,yes_4,Picture1.jpg,N_1.png,1,N_2.png,2,N_3.png,3,N_4.png,4,Y_1.png,1,Y_2.png,2,Y_3.png,3,Y_4.png,4,confidence.png,1,guessing.png,2,respond_yes.png,3,respond_no.png,4,Word 11 of 12,1,Image 1 of 3,1,heart,1
A3GIIL73GE2CBQ,practiceBlock,centre_mouse,24,774,reveal,Picture1.jpg,N_1.png,1,N_2.png,2,N_3.png,3,N_4.png,4,Y_1.png,1,Y_2.png,2,Y_3.png,3,Y_4.png,4,confidence.png,1,guessing.png,2,respond_yes.png,3,respond_no.png,4,Word 11 of 12,1,Image 1 of 3,1,reveal.png,5
A3GIIL73GE2CBQ,practiceBlock,absent_trial,25,1196,no_4,Picture1.jpg,N_1.png,1,N_2.png,2,N_3.png,3,N_4.png,4,Y_1.png,1,Y_2.png,2,Y_3.png,3,Y_4.png,4,confidence.png,1,guessing.png,2,respond_yes.png,3,respond_no.png,4,Word 12 of 12,1,Image 1 of 3,1,soldier,60
A3GIIL73GE2CBQ,practiceBlock,centre_mouse,26,938,reveal,Picture1.jpg,N_1.png,1,N_2.png,2,N_3.png,3,N_4.png,4,Y_1.png,1,Y_2.png,2,Y_3.png,3,Y_4.png,4,confidence.png,1,guessing.png,2,respond_yes.png,3,respond_no.png,4,Word 12 of 12,1,Image 1 of 3,1,reveal.png,5
A3GIIL73GE2CBQ,practiceBlock,practice,1,0,0,Picture1.jpg,+,1,Picture3.jpg,3,mask1.jpg,1,mask1.jpg,1,mask1.jpg,1,mask4.jpg,4,mask3.jpg,3,0,0,0,0,0,0,0,0,0,0,0,0,0,0,0,0
A3GIIL73GE2CBQ,practiceBlock,centre_mouse,2,1899,reveal,Picture1.jpg,N_1.png,1,N_2.png,2,N_3.png,3,N_4.png,4,Y_1.png,1,Y_2.png,2,Y_3.png,3,Y_4.png,4,confidence.png,1,guessing.png,2,respond_yes.png,3,respond_no.png,4,Word 0 of 12,1,Image 2 of 3,1,reveal.png,5
A3GIIL73GE2CBQ,practiceBlock,practice_trial,3,6727,yes_4,Picture3.jpg,N_1.png,1,N_2.png,2,N_3.png,3,N_4.png,4,Y_1.png,1,Y_2.png,2,Y_3.png,3,Y_4.png,4,confidence.png,1,guessing.png,2,respond_yes.png,3,respond_no.png,4,Word 1 of 12,1,Image 2 of 3,1,sun,2
A3GIIL73GE2CBQ,practiceBlock,centre_mouse,4,793,reveal,Picture3.jpg,N_1.png,1,N_2.png,2,N_3.png,3,N_4.png,4,Y_1.png,1,Y_2.png,2,Y_3.png,3,Y_4.png,4,confidence.png,1,guessing.png,2,respond_yes.png,3,respond_no.png,4,Word 1 of 12,1,Image 2 of 3,1,reveal.png,5
A3GIIL73GE2CBQ,practiceBlock,absent_trial,5,3972,no_2,Picture3.jpg,N_1.png,1,N_2.png,2,N_3.png,3,N_4.png,4,Y_1.png,1,Y_2.png,2,Y_3.png,3,Y_4.png,4,confidence.png,1,guessing.png,2,respond_yes.png,3,respond_no.png,4,Word 2 of 12,1,Image 2 of 3,1,disc,2431
A3GIIL73GE2CBQ,practiceBlock,centre_mouse,6,872,reveal,Picture3.jpg,N_1.png,1,N_2.png,2,N_3.png,3,N_4.png,4,Y_1.png,1,Y_2.png,2,Y_3.png,3,Y_4.png,4,confidence.png,1,guessing.png,2,respond_yes.png,3,respond_no.png,4,Word 2 of 12,1,Image 2 of 3,1,reveal.png,5
A3GIIL73GE2CBQ,practiceBlock,practice_trial,7,2598,yes_1,Picture3.jpg,N_1.png,1,N_2.png,2,N_3.png,3,N_4.png,4,Y_1.png,1,Y_2.png,2,Y_3.png,3,Y_4.png,4,confidence.png,1,guessing.png,2,respond_yes.png,3,respond_no.png,4,Word 3 of 12,1,Image 2 of 3,1,blue,5
A3GIIL73GE2CBQ,practiceBlock,centre_mouse,8,553,reveal,Picture3.jpg,N_1.png,1,N_2.png,2,N_3.png,3,N_4.png,4,Y_1.png,1,Y_2.png,2,Y_3.png,3,Y_4.png,4,confidence.png,1,guessing.png,2,respond_yes.png,3,respond_no.png,4,Word 3 of 12,1,Image 2 of 3,1,reveal.png,5
A3GIIL73GE2CBQ,practiceBlock,absent_trial,9,1750,no_4,Picture3.jpg,N_1.png,1,N_2.png,2,N_3.png,3,N_4.png,4,Y_1.png,1,Y_2.png,2,Y_3.png,3,Y_4.png,4,confidence.png,1,guessing.png,2,respond_yes.png,3,respond_no.png,4,Word 4 of 12,1,Image 2 of 3,1,mannequin,3088
A3GIIL73GE2CBQ,practiceBlock,centre_mouse,10,517,reveal,Picture3.jpg,N_1.png,1,N_2.png,2,N_3.png,3,N_4.png,4,Y_1.png,1,Y_2.png,2,Y_3.png,3,Y_4.png,4,confidence.png,1,guessing.png,2,respond_yes.png,3,respond_no.png,4,Word 4 of 12,1,Image 2 of 3,1,reveal.png,5
A3GIIL73GE2CBQ,practiceBlock,absent_trial,11,1298,no_4,Picture3.jpg,N_1.png,1,N_2.png,2,N_3.png,3,N_4.png,4,Y_1.png,1,Y_2.png,2,Y_3.png,3,Y_4.png,4,confidence.png,1,guessing.png,2,respond_yes.png,3,respond_no.png,4,Word 5 of 12,1,Image 2 of 3,1,servant,3261
A3GIIL73GE2CBQ,practiceBlock,centre_mouse,12,526,reveal,Picture3.jpg,N_1.png,1,N_2.png,2,N_3.png,3,N_4.png,4,Y_1.png,1,Y_2.png,2,Y_3.png,3,Y_4.png,4,confidence.png,1,guessing.png,2,respond_yes.png,3,respond_no.png,4,Word 5 of 12,1,Image 2 of 3,1,reveal.png,5
A3GIIL73GE2CBQ,practiceBlock,practice_trial,13,1944,yes_2,Picture3.jpg,N_1.png,1,N_2.png,2,N_3.png,3,N_4.png,4,Y_1.png,1,Y_2.png,2,Y_3.png,3,Y_4.png,4,confidence.png,1,guessing.png,2,respond_yes.png,3,respond_no.png,4,Word 6 of 12,1,Image 2 of 3,1,cloud,3
A3GIIL73GE2CBQ,practiceBlock,centre_mouse,14,688,reveal,Picture3.jpg,N_1.png,1,N_2.png,2,N_3.png,3,N_4.png,4,Y_1.png,1,Y_2.png,2,Y_3.png,3,Y_4.png,4,confidence.png,1,guessing.png,2,respond_yes.png,3,respond_no.png,4,Word 6 of 12,1,Image 2 of 3,1,reveal.png,5
A3GIIL73GE2CBQ,practiceBlock,absent_trial,15,1814,no_4,Picture3.jpg,N_1.png,1,N_2.png,2,N_3.png,3,N_4.png,4,Y_1.png,1,Y_2.png,2,Y_3.png,3,Y_4.png,4,confidence.png,1,guessing.png,2,respond_yes.png,3,respond_no.png,4,Word 7 of 12,1,Image 2 of 3,1,move,1104
A3GIIL73GE2CBQ,practiceBlock,centre_mouse,16,544,reveal,Picture3.jpg,N_1.png,1,N_2.png,2,N_3.png,3,N_4.png,4,Y_1.png,1,Y_2.png,2,Y_3.png,3,Y_4.png,4,confidence.png,1,guessing.png,2,respond_yes.png,3,respond_no.png,4,Word 7 of 12,1,Image 2 of 3,1,reveal.png,5
A3GIIL73GE2CBQ,practiceBlock,absent_trial,17,823,no_4,Picture3.jpg,N_1.png,1,N_2.png,2,N_3.png,3,N_4.png,4,Y_1.png,1,Y_2.png,2,Y_3.png,3,Y_4.png,4,confidence.png,1,guessing.png,2,respond_yes.png,3,respond_no.png,4,Word 8 of 12,1,Image 2 of 3,1,intimacy,1517
A3GIIL73GE2CBQ,practiceBlock,centre_mouse,18,571,reveal,Picture3.jpg,N_1.png,1,N_2.png,2,N_3.png,3,N_4.png,4,Y_1.png,1,Y_2.png,2,Y_3.png,3,Y_4.png,4,confidence.png,1,guessing.png,2,respond_yes.png,3,respond_no.png,4,Word 8 of 12,1,Image 2 of 3,1,reveal.png,5
A3GIIL73GE2CBQ,practiceBlock,absent_trial,19,731,no_4,Picture3.jpg,N_1.png,1,N_2.png,2,N_3.png,3,N_4.png,4,Y_1.png,1,Y_2.png,2,Y_3.png,3,Y_4.png,4,confidence.png,1,guessing.png,2,respond_yes.png,3,respond_no.png,4,Word 9 of 12,1,Image 2 of 3,1,canned-food,1860
A3GIIL73GE2CBQ,practiceBlock,centre_mouse,20,517,reveal,Picture3.jpg,N_1.png,1,N_2.png,2,N_3.png,3,N_4.png,4,Y_1.png,1,Y_2.png,2,Y_3.png,3,Y_4.png,4,confidence.png,1,guessing.png,2,respond_yes.png,3,respond_no.png,4,Word 9 of 12,1,Image 2 of 3,1,reveal.png,5
A3GIIL73GE2CBQ,practiceBlock,practice_trial,21,905,no_4,Picture3.jpg,N_1.png,1,N_2.png,2,N_3.png,3,N_4.png,4,Y_1.png,1,Y_2.png,2,Y_3.png,3,Y_4.png,4,confidence.png,1,guessing.png,2,respond_yes.png,3,respond_no.png,4,Word 10 of 12,1,Image 2 of 3,1,mountain,1
A3GIIL73GE2CBQ,practiceBlock,centre_mouse,22,1130,reveal,Picture3.jpg,N_1.png,1,N_2.png,2,N_3.png,3,N_4.png,4,Y_1.png,1,Y_2.png,2,Y_3.png,3,Y_4.png,4,confidence.png,1,guessing.png,2,respond_yes.png,3,respond_no.png,4,Word 10 of 12,1,Image 2 of 3,1,reveal.png,5
A3GIIL73GE2CBQ,practiceBlock,practice_trial,23,2184,yes_1,Picture3.jpg,N_1.png,1,N_2.png,2,N_3.png,3,N_4.png,4,Y_1.png,1,Y_2.png,2,Y_3.png,3,Y_4.png,4,confidence.png,1,guessing.png,2,respond_yes.png,3,respond_no.png,4,Word 11 of 12,1,Image 2 of 3,1,landscape,4
A3GIIL73GE2CBQ,practiceBlock,centre_mouse,24,692,reveal,Picture3.jpg,N_1.png,1,N_2.png,2,N_3.png,3,N_4.png,4,Y_1.png,1,Y_2.png,2,Y_3.png,3,Y_4.png,4,confidence.png,1,guessing.png,2,respond_yes.png,3,respond_no.png,4,Word 11 of 12,1,Image 2 of 3,1,reveal.png,5
A3GIIL73GE2CBQ,practiceBlock,practice_trial,25,1245,yes_3,Picture3.jpg,N_1.png,1,N_2.png,2,N_3.png,3,N_4.png,4,Y_1.png,1,Y_2.png,2,Y_3.png,3,Y_4.png,4,confidence.png,1,guessing.png,2,respond_yes.png,3,respond_no.png,4,Word 12 of 12,1,Image 2 of 3,1,sky,6
A3GIIL73GE2CBQ,practiceBlock,centre_mouse,26,1001,reveal,Picture3.jpg,N_1.png,1,N_2.png,2,N_3.png,3,N_4.png,4,Y_1.png,1,Y_2.png,2,Y_3.png,3,Y_4.png,4,confidence.png,1,guessing.png,2,respond_yes.png,3,respond_no.png,4,Word 12 of 12,1,Image 2 of 3,1,reveal.png,5
A3GIIL73GE2CBQ,practiceBlock,practice,1,0,0,Picture3.jpg,+,1,Picture2.jpg,2,mask2.jpg,2,mask5.jpg,5,mask4.jpg,4,mask3.jpg,3,mask4.jpg,4,0,0,0,0,0,0,0,0,0,0,0,0,0,0,0,0
A3GIIL73GE2CBQ,practiceBlock,centre_mouse,2,975,reveal,Picture3.jpg,N_1.png,1,N_2.png,2,N_3.png,3,N_4.png,4,Y_1.png,1,Y_2.png,2,Y_3.png,3,Y_4.png,4,confidence.png,1,guessing.png,2,respond_yes.png,3,respond_no.png,4,Word 0 of 12,1,Image 3 of 3,1,reveal.png,5
A3GIIL73GE2CBQ,practiceBlock,absent_trial,3,2228,no_4,Picture3.jpg,N_1.png,1,N_2.png,2,N_3.png,3,N_4.png,4,Y_1.png,1,Y_2.png,2,Y_3.png,3,Y_4.png,4,confidence.png,1,guessing.png,2,respond_yes.png,3,respond_no.png,4,Word 1 of 12,1,Image 3 of 3,1,athletic,2902
A3GIIL73GE2CBQ,practiceBlock,centre_mouse,4,454,reveal,Picture3.jpg,N_1.png,1,N_2.png,2,N_3.png,3,N_4.png,4,Y_1.png,1,Y_2.png,2,Y_3.png,3,Y_4.png,4,confidence.png,1,guessing.png,2,respond_yes.png,3,respond_no.png,4,Word 1 of 12,1,Image 3 of 3,1,reveal.png,5
A3GIIL73GE2CBQ,practiceBlock,absent_trial,5,966,no_4,Picture3.jpg,N_1.png,1,N_2.png,2,N_3.png,3,N_4.png,4,Y_1.png,1,Y_2.png,2,Y_3.png,3,Y_4.png,4,confidence.png,1,guessing.png,2,respond_yes.png,3,respond_no.png,4,Word 2 of 12,1,Image 3 of 3,1,happen,1062
A3GIIL73GE2CBQ,practiceBlock,centre_mouse,6,1049,reveal,Picture3.jpg,N_1.png,1,N_2.png,2,N_3.png,3,N_4.png,4,Y_1.png,1,Y_2.png,2,Y_3.png,3,Y_4.png,4,confidence.png,1,guessing.png,2,respond_yes.png,3,respond_no.png,4,Word 2 of 12,1,Image 3 of 3,1,reveal.png,5
A3GIIL73GE2CBQ,practiceBlock,practice_trial,7,1153,yes_4,Picture2.jpg,N_1.png,1,N_2.png,2,N_3.png,3,N_4.png,4,Y_1.png,1,Y_2.png,2,Y_3.png,3,Y_4.png,4,confidence.png,1,guessing.png,2,respond_yes.png,3,respond_no.png,4,Word 3 of 12,1,Image 3 of 3,1,smile,4
A3GIIL73GE2CBQ,practiceBlock,centre_mouse,8,843,reveal,Picture2.jpg,N_1.png,1,N_2.png,2,N_3.png,3,N_4.png,4,Y_1.png,1,Y_2.png,2,Y_3.png,3,Y_4.png,4,confidence.png,1,guessing.png,2,respond_yes.png,3,respond_no.png,4,Word 3 of 12,1,Image 3 of 3,1,reveal.png,5
A3GIIL73GE2CBQ,practiceBlock,practice_trial,9,1383,yes_3,Picture2.jpg,N_1.png,1,N_2.png,2,N_3.png,3,N_4.png,4,Y_1.png,1,Y_2.png,2,Y_3.png,3,Y_4.png,4,confidence.png,1,guessing.png,2,respond_yes.png,3,respond_no.png,4,Word 4 of 12,1,Image 3 of 3,1,eyes,3
A3GIIL73GE2CBQ,practiceBlock,centre_mouse,10,503,reveal,Picture2.jpg,N_1.png,1,N_2.png,2,N_3.png,3,N_4.png,4,Y_1.png,1,Y_2.png,2,Y_3.png,3,Y_4.png,4,confidence.png,1,guessing.png,2,respond_yes.png,3,respond_no.png,4,Word 4 of 12,1,Image 3 of 3,1,reveal.png,5
A3GIIL73GE2CBQ,practiceBlock,absent_trial,11,1438,no_4,Picture2.jpg,N_1.png,1,N_2.png,2,N_3.png,3,N_4.png,4,Y_1.png,1,Y_2.png,2,Y_3.png,3,Y_4.png,4,confidence.png,1,guessing.png,2,respond_yes.png,3,respond_no.png,4,Word 5 of 12,1,Image 3 of 3,1,gorgeous,227
A3GIIL73GE2CBQ,practiceBlock,centre_mouse,12,484,reveal,Picture2.jpg,N_1.png,1,N_2.png,2,N_3.png,3,N_4.png,4,Y_1.png,1,Y_2.png,2,Y_3.png,3,Y_4.png,4,confidence.png,1,guessing.png,2,respond_yes.png,3,respond_no.png,4,Word 5 of 12,1,Image 3 of 3,1,reveal.png,5
A3GIIL73GE2CBQ,practiceBlock,absent_trial,13,2669,no_4,Picture2.jpg,N_1.png,1,N_2.png,2,N_3.png,3,N_4.png,4,Y_1.png,1,Y_2.png,2,Y_3.png,3,Y_4.png,4,confidence.png,1,guessing.png,2,respond_yes.png,3,respond_no.png,4,Word 6 of 12,1,Image 3 of 3,1,frame,410
A3GIIL73GE2CBQ,practiceBlock,centre_mouse,14,718,reveal,Picture2.jpg,N_1.png,1,N_2.png,2,N_3.png,3,N_4.png,4,Y_1.png,1,Y_2.png,2,Y_3.png,3,Y_4.png,4,confidence.png,1,guessing.png,2,respond_yes.png,3,respond_no.png,4,Word 6 of 12,1,Image 3 of 3,1,reveal.png,5
A3GIIL73GE2CBQ,practiceBlock,practice_trial,15,1152,yes_4,Picture2.jpg,N_1.png,1,N_2.png,2,N_3.png,3,N_4.png,4,Y_1.png,1,Y_2.png,2,Y_3.png,3,Y_4.png,4,confidence.png,1,guessing.png,2,respond_yes.png,3,respond_no.png,4,Word 7 of 12,1,Image 3 of 3,1,emoji,6
A3GIIL73GE2CBQ,practiceBlock,centre_mouse,16,866,reveal,Picture2.jpg,N_1.png,1,N_2.png,2,N_3.png,3,N_4.png,4,Y_1.png,1,Y_2.png,2,Y_3.png,3,Y_4.png,4,confidence.png,1,guessing.png,2,respond_yes.png,3,respond_no.png,4,Word 7 of 12,1,Image 3 of 3,1,reveal.png,5
A3GIIL73GE2CBQ,practiceBlock,practice_trial,17,829,yes_4,Picture2.jpg,N_1.png,1,N_2.png,2,N_3.png,3,N_4.png,4,Y_1.png,1,Y_2.png,2,Y_3.png,3,Y_4.png,4,confidence.png,1,guessing.png,2,respond_yes.png,3,respond_no.png,4,Word 8 of 12,1,Image 3 of 3,1,happy,5
A3GIIL73GE2CBQ,practiceBlock,centre_mouse,18,840,reveal,Picture2.jpg,N_1.png,1,N_2.png,2,N_3.png,3,N_4.png,4,Y_1.png,1,Y_2.png,2,Y_3.png,3,Y_4.png,4,confidence.png,1,guessing.png,2,respond_yes.png,3,respond_no.png,4,Word 8 of 12,1,Image 3 of 3,1,reveal.png,5
A3GIIL73GE2CBQ,practiceBlock,absent_trial,19,2761,no_4,Picture2.jpg,N_1.png,1,N_2.png,2,N_3.png,3,N_4.png,4,Y_1.png,1,Y_2.png,2,Y_3.png,3,Y_4.png,4,confidence.png,1,guessing.png,2,respond_yes.png,3,respond_no.png,4,Word 9 of 12,1,Image 3 of 3,1,vulture,3062
A3GIIL73GE2CBQ,practiceBlock,centre_mouse,20,740,reveal,Picture2.jpg,N_1.png,1,N_2.png,2,N_3.png,3,N_4.png,4,Y_1.png,1,Y_2.png,2,Y_3.png,3,Y_4.png,4,confidence.png,1,guessing.png,2,respond_yes.png,3,respond_no.png,4,Word 9 of 12,1,Image 3 of 3,1,reveal.png,5
A3GIIL73GE2CBQ,practiceBlock,practice_trial,21,1492,yes_4,Picture2.jpg,N_1.png,1,N_2.png,2,N_3.png,3,N_4.png,4,Y_1.png,1,Y_2.png,2,Y_3.png,3,Y_4.png,4,confidence.png,1,guessing.png,2,respond_yes.png,3,respond_no.png,4,Word 10 of 12,1,Image 3 of 3,1,face,1
A3GIIL73GE2CBQ,practiceBlock,centre_mouse,22,574,reveal,Picture2.jpg,N_1.png,1,N_2.png,2,N_3.png,3,N_4.png,4,Y_1.png,1,Y_2.png,2,Y_3.png,3,Y_4.png,4,confidence.png,1,guessing.png,2,respond_yes.png,3,respond_no.png,4,Word 10 of 12,1,Image 3 of 3,1,reveal.png,5
A3GIIL73GE2CBQ,practiceBlock,practice_trial,23,1058,yes_4,Picture2.jpg,N_1.png,1,N_2.png,2,N_3.png,3,N_4.png,4,Y_1.png,1,Y_2.png,2,Y_3.png,3,Y_4.png,4,confidence.png,1,guessing.png,2,respond_yes.png,3,respond_no.png,4,Word 11 of 12,1,Image 3 of 3,1,yellow,2
A3GIIL73GE2CBQ,practiceBlock,centre_mouse,24,586,reveal,Picture2.jpg,N_1.png,1,N_2.png,2,N_3.png,3,N_4.png,4,Y_1.png,1,Y_2.png,2,Y_3.png,3,Y_4.png,4,confidence.png,1,guessing.png,2,respond_yes.png,3,respond_no.png,4,Word 11 of 12,1,Image 3 of 3,1,reveal.png,5
A3GIIL73GE2CBQ,practiceBlock,absent_trial,25,2497,no_4,Picture2.jpg,N_1.png,1,N_2.png,2,N_3.png,3,N_4.png,4,Y_1.png,1,Y_2.png,2,Y_3.png,3,Y_4.png,4,confidence.png,1,guessing.png,2,respond_yes.png,3,respond_no.png,4,Word 12 of 12,1,Image 3 of 3,1,awning,244
A3GIIL73GE2CBQ,practiceBlock,centre_mouse,26,866,reveal,Picture2.jpg,N_1.png,1,N_2.png,2,N_3.png,3,N_4.png,4,Y_1.png,1,Y_2.png,2,Y_3.png,3,Y_4.png,4,confidence.png,1,guessing.png,2,respond_yes.png,3,respond_no.png,4,Word 12 of 12,1,Image 3 of 3,1,reveal.png,5
A3GIIL73GE2CBQ,reset,reset,1,200,0,Picture2.jpg,0,0,0,0,0,0,0,0,0,0,0,0,0,0,0,0,0,0,0,0,0,0,0,0,0,0,0,0,0,0
A3GIIL73GE2CBQ,testBlock,test,1,0,0,im0000041.jpg,+,1,im0000050.jpg,2,mask4.jpg,4,mask4.jpg,4,mask2.jpg,2,mask5.jpg,5,mask1.jpg,1,0,0,0,0,0,0,0,0,0,0,0,0,0,0,0,0
A3GIIL73GE2CBQ,testBlock,centre_mouse,2,3380,reveal,im0000041.jpg,N_1.png,1,N_2.png,2,N_3.png,3,N_4.png,4,Y_1.png,1,Y_2.png,2,Y_3.png,3,Y_4.png,4,confidence.png,1,guessing.png,2,respond_yes.png,3,respond_no.png,4,Word 0 of 80,1,Image 1 of 5,1,reveal.png,5
A3GIIL73GE2CBQ,testBlock,present_trial,3,2062,no_1,im0000050.jpg,N_1.png,1,N_2.png,2,N_3.png,3,N_4.png,4,Y_1.png,1,Y_2.png,2,Y_3.png,3,Y_4.png,4,confidence.png,1,guessing.png,2,respond_yes.png,3,respond_no.png,4,Word 1 of 80,1,Image 1 of 5,1,thing,25
A3GIIL73GE2CBQ,testBlock,centre_mouse,4,1135,reveal,im0000050.jpg,N_1.png,1,N_2.png,2,N_3.png,3,N_4.png,4,Y_1.png,1,Y_2.png,2,Y_3.png,3,Y_4.png,4,confidence.png,1,guessing.png,2,respond_yes.png,3,respond_no.png,4,Word 1 of 80,1,Image 1 of 5,1,reveal.png,5
A3GIIL73GE2CBQ,testBlock,present_trial,5,2403,yes_1,im0000050.jpg,N_1.png,1,N_2.png,2,N_3.png,3,N_4.png,4,Y_1.png,1,Y_2.png,2,Y_3.png,3,Y_4.png,4,confidence.png,1,guessing.png,2,respond_yes.png,3,respond_no.png,4,Word 2 of 80,1,Image 1 of 5,1,mango,32
A3GIIL73GE2CBQ,testBlock,centre_mouse,6,532,reveal,im0000050.jpg,N_1.png,1,N_2.png,2,N_3.png,3,N_4.png,4,Y_1.png,1,Y_2.png,2,Y_3.png,3,Y_4.png,4,confidence.png,1,guessing.png,2,respond_yes.png,3,respond_no.png,4,Word 2 of 80,1,Image 1 of 5,1,reveal.png,5
A3GIIL73GE2CBQ,testBlock,present_trial,7,1343,yes_4,im0000050.jpg,N_1.png,1,N_2.png,2,N_3.png,3,N_4.png,4,Y_1.png,1,Y_2.png,2,Y_3.png,3,Y_4.png,4,confidence.png,1,guessing.png,2,respond_yes.png,3,respond_no.png,4,Word 3 of 80,1,Image 1 of 5,1,people-shopping,21
A3GIIL73GE2CBQ,testBlock,centre_mouse,8,843,reveal,im0000050.jpg,N_1.png,1,N_2.png,2,N_3.png,3,N_4.png,4,Y_1.png,1,Y_2.png,2,Y_3.png,3,Y_4.png,4,confidence.png,1,guessing.png,2,respond_yes.png,3,respond_no.png,4,Word 3 of 80,1,Image 1 of 5,1,reveal.png,5
A3GIIL73GE2CBQ,testBlock,absent_trial,9,2369,no_3,im0000050.jpg,N_1.png,1,N_2.png,2,N_3.png,3,N_4.png,4,Y_1.png,1,Y_2.png,2,Y_3.png,3,Y_4.png,4,confidence.png,1,guessing.png,2,respond_yes.png,3,respond_no.png,4,Word 4 of 80,1,Image 1 of 5,1,toy,934
A3GIIL73GE2CBQ,testBlock,centre_mouse,10,486,reveal,im0000050.jpg,N_1.png,1,N_2.png,2,N_3.png,3,N_4.png,4,Y_1.png,1,Y_2.png,2,Y_3.png,3,Y_4.png,4,confidence.png,1,guessing.png,2,respond_yes.png,3,respond_no.png,4,Word 4 of 80,1,Image 1 of 5,1,reveal.png,5
A3GIIL73GE2CBQ,testBlock,present_trial,11,2202,no_1,im0000050.jpg,N_1.png,1,N_2.png,2,N_3.png,3,N_4.png,4,Y_1.png,1,Y_2.png,2,Y_3.png,3,Y_4.png,4,confidence.png,1,guessing.png,2,respond_yes.png,3,respond_no.png,4,Word 5 of 80,1,Image 1 of 5,1,saoorow,19
A3GIIL73GE2CBQ,testBlock,centre_mouse,12,804,reveal,im0000050.jpg,N_1.png,1,N_2.png,2,N_3.png,3,N_4.png,4,Y_1.png,1,Y_2.png,2,Y_3.png,3,Y_4.png,4,confidence.png,1,guessing.png,2,respond_yes.png,3,respond_no.png,4,Word 5 of 80,1,Image 1 of 5,1,reveal.png,5
A3GIIL73GE2CBQ,testBlock,present_trial,13,972,no_1,im0000050.jpg,N_1.png,1,N_2.png,2,N_3.png,3,N_4.png,4,Y_1.png,1,Y_2.png,2,Y_3.png,3,Y_4.png,4,confidence.png,1,guessing.png,2,respond_yes.png,3,respond_no.png,4,Word 6 of 80,1,Image 1 of 5,1,pink-dress,23
A3GIIL73GE2CBQ,testBlock,centre_mouse,14,805,reveal,im0000050.jpg,N_1.png,1,N_2.png,2,N_3.png,3,N_4.png,4,Y_1.png,1,Y_2.png,2,Y_3.png,3,Y_4.png,4,confidence.png,1,guessing.png,2,respond_yes.png,3,respond_no.png,4,Word 6 of 80,1,Image 1 of 5,1,reveal.png,5
A3GIIL73GE2CBQ,testBlock,present_trial,15,916,no_1,im0000050.jpg,N_1.png,1,N_2.png,2,N_3.png,3,N_4.png,4,Y_1.png,1,Y_2.png,2,Y_3.png,3,Y_4.png,4,confidence.png,1,guessing.png,2,respond_yes.png,3,respond_no.png,4,Word 7 of 80,1,Image 1 of 5,1,guard,39
A3GIIL73GE2CBQ,testBlock,centre_mouse,16,783,reveal,im0000050.jpg,N_1.png,1,N_2.png,2,N_3.png,3,N_4.png,4,Y_1.png,1,Y_2.png,2,Y_3.png,3,Y_4.png,4,confidence.png,1,guessing.png,2,respond_yes.png,3,respond_no.png,4,Word 7 of 80,1,Image 1 of 5,1,reveal.png,5
A3GIIL73GE2CBQ,testBlock,absent_trial,17,1024,no_1,im0000050.jpg,N_1.png,1,N_2.png,2,N_3.png,3,N_4.png,4,Y_1.png,1,Y_2.png,2,Y_3.png,3,Y_4.png,4,confidence.png,1,guessing.png,2,respond_yes.png,3,respond_no.png,4,Word 8 of 80,1,Image 1 of 5,1,wolf,2300
A3GIIL73GE2CBQ,testBlock,centre_mouse,18,841,reveal,im0000050.jpg,N_1.png,1,N_2.png,2,N_3.png,3,N_4.png,4,Y_1.png,1,Y_2.png,2,Y_3.png,3,Y_4.png,4,confidence.png,1,guessing.png,2,respond_yes.png,3,respond_no.png,4,Word 8 of 80,1,Image 1 of 5,1,reveal.png,5
A3GIIL73GE2CBQ,testBlock,present_trial,19,2833,yes_3,im0000050.jpg,N_1.png,1,N_2.png,2,N_3.png,3,N_4.png,4,Y_1.png,1,Y_2.png,2,Y_3.png,3,Y_4.png,4,confidence.png,1,guessing.png,2,respond_yes.png,3,respond_no.png,4,Word 9 of 80,1,Image 1 of 5,1,people,4
A3GIIL73GE2CBQ,testBlock,centre_mouse,20,833,reveal,im0000050.jpg,N_1.png,1,N_2.png,2,N_3.png,3,N_4.png,4,Y_1.png,1,Y_2.png,2,Y_3.png,3,Y_4.png,4,confidence.png,1,guessing.png,2,respond_yes.png,3,respond_no.png,4,Word 9 of 80,1,Image 1 of 5,1,reveal.png,5
A3GIIL73GE2CBQ,testBlock,absent_trial,21,5952,no_1,im0000050.jpg,N_1.png,1,N_2.png,2,N_3.png,3,N_4.png,4,Y_1.png,1,Y_2.png,2,Y_3.png,3,Y_4.png,4,confidence.png,1,guessing.png,2,respond_yes.png,3,respond_no.png,4,Word 10 of 80,1,Image 1 of 5,1,miniature,3057
A3GIIL73GE2CBQ,testBlock,centre_mouse,22,774,reveal,im0000050.jpg,N_1.png,1,N_2.png,2,N_3.png,3,N_4.png,4,Y_1.png,1,Y_2.png,2,Y_3.png,3,Y_4.png,4,confidence.png,1,guessing.png,2,respond_yes.png,3,respond_no.png,4,Word 10 of 80,1,Image 1 of 5,1,reveal.png,5
A3GIIL73GE2CBQ,testBlock,absent_trial,23,1881,no_4,im0000050.jpg,N_1.png,1,N_2.png,2,N_3.png,3,N_4.png,4,Y_1.png,1,Y_2.png,2,Y_3.png,3,Y_4.png,4,confidence.png,1,guessing.png,2,respond_yes.png,3,respond_no.png,4,Word 11 of 80,1,Image 1 of 5,1,zoo,2058
A3GIIL73GE2CBQ,testBlock,centre_mouse,24,606,reveal,im0000050.jpg,N_1.png,1,N_2.png,2,N_3.png,3,N_4.png,4,Y_1.png,1,Y_2.png,2,Y_3.png,3,Y_4.png,4,confidence.png,1,guessing.png,2,respond_yes.png,3,respond_no.png,4,Word 11 of 80,1,Image 1 of 5,1,reveal.png,5
A3GIIL73GE2CBQ,testBlock,absent_trial,25,1278,no_4,im0000050.jpg,N_1.png,1,N_2.png,2,N_3.png,3,N_4.png,4,Y_1.png,1,Y_2.png,2,Y_3.png,3,Y_4.png,4,confidence.png,1,guessing.png,2,respond_yes.png,3,respond_no.png,4,Word 12 of 80,1,Image 1 of 5,1,style,2680
A3GIIL73GE2CBQ,testBlock,centre_mouse,26,539,reveal,im0000050.jpg,N_1.png,1,N_2.png,2,N_3.png,3,N_4.png,4,Y_1.png,1,Y_2.png,2,Y_3.png,3,Y_4.png,4,confidence.png,1,guessing.png,2,respond_yes.png,3,respond_no.png,4,Word 12 of 80,1,Image 1 of 5,1,reveal.png,5
A3GIIL73GE2CBQ,testBlock,absent_trial,27,805,no_4,im0000050.jpg,N_1.png,1,N_2.png,2,N_3.png,3,N_4.png,4,Y_1.png,1,Y_2.png,2,Y_3.png,3,Y_4.png,4,confidence.png,1,guessing.png,2,respond_yes.png,3,respond_no.png,4,Word 13 of 80,1,Image 1 of 5,1,large-ships,1011
A3GIIL73GE2CBQ,testBlock,centre_mouse,28,1350,reveal,im0000050.jpg,N_1.png,1,N_2.png,2,N_3.png,3,N_4.png,4,Y_1.png,1,Y_2.png,2,Y_3.png,3,Y_4.png,4,confidence.png,1,guessing.png,2,respond_yes.png,3,respond_no.png,4,Word 13 of 80,1,Image 1 of 5,1,reveal.png,5
A3GIIL73GE2CBQ,testBlock,present_trial,29,1305,yes_4,im0000050.jpg,N_1.png,1,N_2.png,2,N_3.png,3,N_4.png,4,Y_1.png,1,Y_2.png,2,Y_3.png,3,Y_4.png,4,confidence.png,1,guessing.png,2,respond_yes.png,3,respond_no.png,4,Word 14 of 80,1,Image 1 of 5,1,store,8
A3GIIL73GE2CBQ,testBlock,centre_mouse,30,421,reveal,im0000050.jpg,N_1.png,1,N_2.png,2,N_3.png,3,N_4.png,4,Y_1.png,1,Y_2.png,2,Y_3.png,3,Y_4.png,4,confidence.png,1,guessing.png,2,respond_yes.png,3,respond_no.png,4,Word 14 of 80,1,Image 1 of 5,1,reveal.png,5
A3GIIL73GE2CBQ,testBlock,present_trial,31,963,no_4,im0000050.jpg,N_1.png,1,N_2.png,2,N_3.png,3,N_4.png,4,Y_1.png,1,Y_2.png,2,Y_3.png,3,Y_4.png,4,confidence.png,1,guessing.png,2,respond_yes.png,3,respond_no.png,4,Word 15 of 80,1,Image 1 of 5,1,crane,35
A3GIIL73GE2CBQ,testBlock,centre_mouse,32,733,reveal,im0000050.jpg,N_1.png,1,N_2.png,2,N_3.png,3,N_4.png,4,Y_1.png,1,Y_2.png,2,Y_3.png,3,Y_4.png,4,confidence.png,1,guessing.png,2,respond_yes.png,3,respond_no.png,4,Word 15 of 80,1,Image 1 of 5,1,reveal.png,5
A3GIIL73GE2CBQ,testBlock,present_trial,33,1863,no_1,im0000050.jpg,N_1.png,1,N_2.png,2,N_3.png,3,N_4.png,4,Y_1.png,1,Y_2.png,2,Y_3.png,3,Y_4.png,4,confidence.png,1,guessing.png,2,respond_yes.png,3,respond_no.png,4,Word 16 of 80,1,Image 1 of 5,1,plum,33
A3GIIL73GE2CBQ,testBlock,centre_mouse,34,704,reveal,im0000050.jpg,N_1.png,1,N_2.png,2,N_3.png,3,N_4.png,4,Y_1.png,1,Y_2.png,2,Y_3.png,3,Y_4.png,4,confidence.png,1,guessing.png,2,respond_yes.png,3,respond_no.png,4,Word 16 of 80,1,Image 1 of 5,1,reveal.png,5
A3GIIL73GE2CBQ,testBlock,present_trial,35,1587,no_4,im0000050.jpg,N_1.png,1,N_2.png,2,N_3.png,3,N_4.png,4,Y_1.png,1,Y_2.png,2,Y_3.png,3,Y_4.png,4,confidence.png,1,guessing.png,2,respond_yes.png,3,respond_no.png,4,Word 17 of 80,1,Image 1 of 5,1,horse,16
A3GIIL73GE2CBQ,testBlock,centre_mouse,36,436,reveal,im0000050.jpg,N_1.png,1,N_2.png,2,N_3.png,3,N_4.png,4,Y_1.png,1,Y_2.png,2,Y_3.png,3,Y_4.png,4,confidence.png,1,guessing.png,2,respond_yes.png,3,respond_no.png,4,Word 17 of 80,1,Image 1 of 5,1,reveal.png,5
A3GIIL73GE2CBQ,testBlock,absent_trial,37,2644,no_1,im0000050.jpg,N_1.png,1,N_2.png,2,N_3.png,3,N_4.png,4,Y_1.png,1,Y_2.png,2,Y_3.png,3,Y_4.png,4,confidence.png,1,guessing.png,2,respond_yes.png,3,respond_no.png,4,Word 18 of 80,1,Image 1 of 5,1,azure,2571
A3GIIL73GE2CBQ,testBlock,centre_mouse,38,462,reveal,im0000050.jpg,N_1.png,1,N_2.png,2,N_3.png,3,N_4.png,4,Y_1.png,1,Y_2.png,2,Y_3.png,3,Y_4.png,4,confidence.png,1,guessing.png,2,respond_yes.png,3,respond_no.png,4,Word 18 of 80,1,Image 1 of 5,1,reveal.png,5
A3GIIL73GE2CBQ,testBlock,present_trial,39,1145,yes_4,im0000050.jpg,N_1.png,1,N_2.png,2,N_3.png,3,N_4.png,4,Y_1.png,1,Y_2.png,2,Y_3.png,3,Y_4.png,4,confidence.png,1,guessing.png,2,respond_yes.png,3,respond_no.png,4,Word 19 of 80,1,Image 1 of 5,1,produce,47
A3GIIL73GE2CBQ,testBlock,centre_mouse,40,605,reveal,im0000050.jpg,N_1.png,1,N_2.png,2,N_3.png,3,N_4.png,4,Y_1.png,1,Y_2.png,2,Y_3.png,3,Y_4.png,4,confidence.png,1,guessing.png,2,respond_yes.png,3,respond_no.png,4,Word 19 of 80,1,Image 1 of 5,1,reveal.png,5
A3GIIL73GE2CBQ,testBlock,absent_trial,41,3279,yes_1,im0000050.jpg,N_1.png,1,N_2.png,2,N_3.png,3,N_4.png,4,Y_1.png,1,Y_2.png,2,Y_3.png,3,Y_4.png,4,confidence.png,1,guessing.png,2,respond_yes.png,3,respond_no.png,4,Word 20 of 80,1,Image 1 of 5,1,organisation,2839
A3GIIL73GE2CBQ,testBlock,centre_mouse,42,430,reveal,im0000050.jpg,N_1.png,1,N_2.png,2,N_3.png,3,N_4.png,4,Y_1.png,1,Y_2.png,2,Y_3.png,3,Y_4.png,4,confidence.png,1,guessing.png,2,respond_yes.png,3,respond_no.png,4,Word 20 of 80,1,Image 1 of 5,1,reveal.png,5
A3GIIL73GE2CBQ,testBlock,present_trial,43,1028,yes_4,im0000050.jpg,N_1.png,1,N_2.png,2,N_3.png,3,N_4.png,4,Y_1.png,1,Y_2.png,2,Y_3.png,3,Y_4.png,4,confidence.png,1,guessing.png,2,respond_yes.png,3,respond_no.png,4,Word 21 of 80,1,Image 1 of 5,1,market,5
A3GIIL73GE2CBQ,testBlock,centre_mouse,44,701,reveal,im0000050.jpg,N_1.png,1,N_2.png,2,N_3.png,3,N_4.png,4,Y_1.png,1,Y_2.png,2,Y_3.png,3,Y_4.png,4,confidence.png,1,guessing.png,2,respond_yes.png,3,respond_no.png,4,Word 21 of 80,1,Image 1 of 5,1,reveal.png,5
A3GIIL73GE2CBQ,testBlock,absent_trial,45,1872,no_1,im0000050.jpg,N_1.png,1,N_2.png,2,N_3.png,3,N_4.png,4,Y_1.png,1,Y_2.png,2,Y_3.png,3,Y_4.png,4,confidence.png,1,guessing.png,2,respond_yes.png,3,respond_no.png,4,Word 22 of 80,1,Image 1 of 5,1,grandmother,1995
A3GIIL73GE2CBQ,testBlock,centre_mouse,46,742,reveal,im0000050.jpg,N_1.png,1,N_2.png,2,N_3.png,3,N_4.png,4,Y_1.png,1,Y_2.png,2,Y_3.png,3,Y_4.png,4,confidence.png,1,guessing.png,2,respond_yes.png,3,respond_no.png,4,Word 22 of 80,1,Image 1 of 5,1,reveal.png,5
A3GIIL73GE2CBQ,testBlock,absent_trial,47,1634,no_4,im0000050.jpg,N_1.png,1,N_2.png,2,N_3.png,3,N_4.png,4,Y_1.png,1,Y_2.png,2,Y_3.png,3,Y_4.png,4,confidence.png,1,guessing.png,2,respond_yes.png,3,respond_no.png,4,Word 23 of 80,1,Image 1 of 5,1,looking-good,1399
A3GIIL73GE2CBQ,testBlock,centre_mouse,48,721,reveal,im0000050.jpg,N_1.png,1,N_2.png,2,N_3.png,3,N_4.png,4,Y_1.png,1,Y_2.png,2,Y_3.png,3,Y_4.png,4,confidence.png,1,guessing.png,2,respond_yes.png,3,respond_no.png,4,Word 23 of 80,1,Image 1 of 5,1,reveal.png,5
A3GIIL73GE2CBQ,testBlock,absent_trial,49,3086,yes_1,im0000050.jpg,N_1.png,1,N_2.png,2,N_3.png,3,N_4.png,4,Y_1.png,1,Y_2.png,2,Y_3.png,3,Y_4.png,4,confidence.png,1,guessing.png,2,respond_yes.png,3,respond_no.png,4,Word 24 of 80,1,Image 1 of 5,1,people-staring,396
A3GIIL73GE2CBQ,testBlock,centre_mouse,50,1534,reveal,im0000050.jpg,N_1.png,1,N_2.png,2,N_3.png,3,N_4.png,4,Y_1.png,1,Y_2.png,2,Y_3.png,3,Y_4.png,4,confidence.png,1,guessing.png,2,respond_yes.png,3,respond_no.png,4,Word 24 of 80,1,Image 1 of 5,1,reveal.png,5
A3GIIL73GE2CBQ,testBlock,absent_trial,51,1705,no_4,im0000050.jpg,N_1.png,1,N_2.png,2,N_3.png,3,N_4.png,4,Y_1.png,1,Y_2.png,2,Y_3.png,3,Y_4.png,4,confidence.png,1,guessing.png,2,respond_yes.png,3,respond_no.png,4,Word 25 of 80,1,Image 1 of 5,1,pan,2981
A3GIIL73GE2CBQ,testBlock,centre_mouse,52,407,reveal,im0000050.jpg,N_1.png,1,N_2.png,2,N_3.png,3,N_4.png,4,Y_1.png,1,Y_2.png,2,Y_3.png,3,Y_4.png,4,confidence.png,1,guessing.png,2,respond_yes.png,3,respond_no.png,4,Word 25 of 80,1,Image 1 of 5,1,reveal.png,5
A3GIIL73GE2CBQ,testBlock,present_trial,53,916,yes_4,im0000050.jpg,N_1.png,1,N_2.png,2,N_3.png,3,N_4.png,4,Y_1.png,1,Y_2.png,2,Y_3.png,3,Y_4.png,4,confidence.png,1,guessing.png,2,respond_yes.png,3,respond_no.png,4,Word 26 of 80,1,Image 1 of 5,1,fruit,2
A3GIIL73GE2CBQ,testBlock,centre_mouse,54,386,reveal,im0000050.jpg,N_1.png,1,N_2.png,2,N_3.png,3,N_4.png,4,Y_1.png,1,Y_2.png,2,Y_3.png,3,Y_4.png,4,confidence.png,1,guessing.png,2,respond_yes.png,3,respond_no.png,4,Word 26 of 80,1,Image 1 of 5,1,reveal.png,5
A3GIIL73GE2CBQ,testBlock,present_trial,55,1850,yes_1,im0000050.jpg,N_1.png,1,N_2.png,2,N_3.png,3,N_4.png,4,Y_1.png,1,Y_2.png,2,Y_3.png,3,Y_4.png,4,confidence.png,1,guessing.png,2,respond_yes.png,3,respond_no.png,4,Word 27 of 80,1,Image 1 of 5,1,city,15
A3GIIL73GE2CBQ,testBlock,centre_mouse,56,673,reveal,im0000050.jpg,N_1.png,1,N_2.png,2,N_3.png,3,N_4.png,4,Y_1.png,1,Y_2.png,2,Y_3.png,3,Y_4.png,4,confidence.png,1,guessing.png,2,respond_yes.png,3,respond_no.png,4,Word 27 of 80,1,Image 1 of 5,1,reveal.png,5
A3GIIL73GE2CBQ,testBlock,absent_trial,57,1445,no_4,im0000050.jpg,N_1.png,1,N_2.png,2,N_3.png,3,N_4.png,4,Y_1.png,1,Y_2.png,2,Y_3.png,3,Y_4.png,4,confidence.png,1,guessing.png,2,respond_yes.png,3,respond_no.png,4,Word 28 of 80,1,Image 1 of 5,1,van,548
A3GIIL73GE2CBQ,testBlock,centre_mouse,58,750,reveal,im0000050.jpg,N_1.png,1,N_2.png,2,N_3.png,3,N_4.png,4,Y_1.png,1,Y_2.png,2,Y_3.png,3,Y_4.png,4,confidence.png,1,guessing.png,2,respond_yes.png,3,respond_no.png,4,Word 28 of 80,1,Image 1 of 5,1,reveal.png,5
A3GIIL73GE2CBQ,testBlock,absent_trial,59,919,no_4,im0000050.jpg,N_1.png,1,N_2.png,2,N_3.png,3,N_4.png,4,Y_1.png,1,Y_2.png,2,Y_3.png,3,Y_4.png,4,confidence.png,1,guessing.png,2,respond_yes.png,3,respond_no.png,4,Word 29 of 80,1,Image 1 of 5,1,harbour,2261
A3GIIL73GE2CBQ,testBlock,centre_mouse,60,514,reveal,im0000050.jpg,N_1.png,1,N_2.png,2,N_3.png,3,N_4.png,4,Y_1.png,1,Y_2.png,2,Y_3.png,3,Y_4.png,4,confidence.png,1,guessing.png,2,respond_yes.png,3,respond_no.png,4,Word 29 of 80,1,Image 1 of 5,1,reveal.png,5
A3GIIL73GE2CBQ,testBlock,absent_trial,61,1542,no_4,im0000050.jpg,N_1.png,1,N_2.png,2,N_3.png,3,N_4.png,4,Y_1.png,1,Y_2.png,2,Y_3.png,3,Y_4.png,4,confidence.png,1,guessing.png,2,respond_yes.png,3,respond_no.png,4,Word 30 of 80,1,Image 1 of 5,1,regular,3168
A3GIIL73GE2CBQ,testBlock,centre_mouse,62,536,reveal,im0000050.jpg,N_1.png,1,N_2.png,2,N_3.png,3,N_4.png,4,Y_1.png,1,Y_2.png,2,Y_3.png,3,Y_4.png,4,confidence.png,1,guessing.png,2,respond_yes.png,3,respond_no.png,4,Word 30 of 80,1,Image 1 of 5,1,reveal.png,5
A3GIIL73GE2CBQ,testBlock,present_trial,63,1106,yes_4,im0000050.jpg,N_1.png,1,N_2.png,2,N_3.png,3,N_4.png,4,Y_1.png,1,Y_2.png,2,Y_3.png,3,Y_4.png,4,confidence.png,1,guessing.png,2,respond_yes.png,3,respond_no.png,4,Word 31 of 80,1,Image 1 of 5,1,shopper,29
A3GIIL73GE2CBQ,testBlock,centre_mouse,64,582,reveal,im0000050.jpg,N_1.png,1,N_2.png,2,N_3.png,3,N_4.png,4,Y_1.png,1,Y_2.png,2,Y_3.png,3,Y_4.png,4,confidence.png,1,guessing.png,2,respond_yes.png,3,respond_no.png,4,Word 31 of 80,1,Image 1 of 5,1,reveal.png,5
A3GIIL73GE2CBQ,testBlock,present_trial,65,1505,yes_1,im0000050.jpg,N_1.png,1,N_2.png,2,N_3.png,3,N_4.png,4,Y_1.png,1,Y_2.png,2,Y_3.png,3,Y_4.png,4,confidence.png,1,guessing.png,2,respond_yes.png,3,respond_no.png,4,Word 32 of 80,1,Image 1 of 5,1,crowd,13
A3GIIL73GE2CBQ,testBlock,centre_mouse,66,452,reveal,im0000050.jpg,N_1.png,1,N_2.png,2,N_3.png,3,N_4.png,4,Y_1.png,1,Y_2.png,2,Y_3.png,3,Y_4.png,4,confidence.png,1,guessing.png,2,respond_yes.png,3,respond_no.png,4,Word 32 of 80,1,Image 1 of 5,1,reveal.png,5
A3GIIL73GE2CBQ,testBlock,present_trial,67,1921,no_4,im0000050.jpg,N_1.png,1,N_2.png,2,N_3.png,3,N_4.png,4,Y_1.png,1,Y_2.png,2,Y_3.png,3,Y_4.png,4,confidence.png,1,guessing.png,2,respond_yes.png,3,respond_no.png,4,Word 33 of 80,1,Image 1 of 5,1,army-people,20
A3GIIL73GE2CBQ,testBlock,centre_mouse,68,422,reveal,im0000050.jpg,N_1.png,1,N_2.png,2,N_3.png,3,N_4.png,4,Y_1.png,1,Y_2.png,2,Y_3.png,3,Y_4.png,4,confidence.png,1,guessing.png,2,respond_yes.png,3,respond_no.png,4,Word 33 of 80,1,Image 1 of 5,1,reveal.png,5
A3GIIL73GE2CBQ,testBlock,absent_trial,69,1124,no_4,im0000050.jpg,N_1.png,1,N_2.png,2,N_3.png,3,N_4.png,4,Y_1.png,1,Y_2.png,2,Y_3.png,3,Y_4.png,4,confidence.png,1,guessing.png,2,respond_yes.png,3,respond_no.png,4,Word 34 of 80,1,Image 1 of 5,1,coloumns,2797
A3GIIL73GE2CBQ,testBlock,centre_mouse,70,457,reveal,im0000050.jpg,N_1.png,1,N_2.png,2,N_3.png,3,N_4.png,4,Y_1.png,1,Y_2.png,2,Y_3.png,3,Y_4.png,4,confidence.png,1,guessing.png,2,respond_yes.png,3,respond_no.png,4,Word 34 of 80,1,Image 1 of 5,1,reveal.png,5
A3GIIL73GE2CBQ,testBlock,absent_trial,71,1172,no_4,im0000050.jpg,N_1.png,1,N_2.png,2,N_3.png,3,N_4.png,4,Y_1.png,1,Y_2.png,2,Y_3.png,3,Y_4.png,4,confidence.png,1,guessing.png,2,respond_yes.png,3,respond_no.png,4,Word 35 of 80,1,Image 1 of 5,1,fear,2034
A3GIIL73GE2CBQ,testBlock,centre_mouse,72,343,reveal,im0000050.jpg,N_1.png,1,N_2.png,2,N_3.png,3,N_4.png,4,Y_1.png,1,Y_2.png,2,Y_3.png,3,Y_4.png,4,confidence.png,1,guessing.png,2,respond_yes.png,3,respond_no.png,4,Word 35 of 80,1,Image 1 of 5,1,reveal.png,5
A3GIIL73GE2CBQ,testBlock,absent_trial,73,855,no_4,im0000050.jpg,N_1.png,1,N_2.png,2,N_3.png,3,N_4.png,4,Y_1.png,1,Y_2.png,2,Y_3.png,3,Y_4.png,4,confidence.png,1,guessing.png,2,respond_yes.png,3,respond_no.png,4,Word 36 of 80,1,Image 1 of 5,1,cool-drinks,1898
A3GIIL73GE2CBQ,testBlock,centre_mouse,74,374,reveal,im0000050.jpg,N_1.png,1,N_2.png,2,N_3.png,3,N_4.png,4,Y_1.png,1,Y_2.png,2,Y_3.png,3,Y_4.png,4,confidence.png,1,guessing.png,2,respond_yes.png,3,respond_no.png,4,Word 36 of 80,1,Image 1 of 5,1,reveal.png,5
A3GIIL73GE2CBQ,testBlock,present_trial,75,2279,yes_1,im0000050.jpg,N_1.png,1,N_2.png,2,N_3.png,3,N_4.png,4,Y_1.png,1,Y_2.png,2,Y_3.png,3,Y_4.png,4,confidence.png,1,guessing.png,2,respond_yes.png,3,respond_no.png,4,Word 37 of 80,1,Image 1 of 5,1,lime,31
A3GIIL73GE2CBQ,testBlock,centre_mouse,76,541,reveal,im0000050.jpg,N_1.png,1,N_2.png,2,N_3.png,3,N_4.png,4,Y_1.png,1,Y_2.png,2,Y_3.png,3,Y_4.png,4,confidence.png,1,guessing.png,2,respond_yes.png,3,respond_no.png,4,Word 37 of 80,1,Image 1 of 5,1,reveal.png,5
A3GIIL73GE2CBQ,testBlock,absent_trial,77,1431,no_4,im0000050.jpg,N_1.png,1,N_2.png,2,N_3.png,3,N_4.png,4,Y_1.png,1,Y_2.png,2,Y_3.png,3,Y_4.png,4,confidence.png,1,guessing.png,2,respond_yes.png,3,respond_no.png,4,Word 38 of 80,1,Image 1 of 5,1,inspire,1353
A3GIIL73GE2CBQ,testBlock,centre_mouse,78,848,reveal,im0000050.jpg,N_1.png,1,N_2.png,2,N_3.png,3,N_4.png,4,Y_1.png,1,Y_2.png,2,Y_3.png,3,Y_4.png,4,confidence.png,1,guessing.png,2,respond_yes.png,3,respond_no.png,4,Word 38 of 80,1,Image 1 of 5,1,reveal.png,5
A3GIIL73GE2CBQ,testBlock,absent_trial,79,990,no_4,im0000050.jpg,N_1.png,1,N_2.png,2,N_3.png,3,N_4.png,4,Y_1.png,1,Y_2.png,2,Y_3.png,3,Y_4.png,4,confidence.png,1,guessing.png,2,respond_yes.png,3,respond_no.png,4,Word 39 of 80,1,Image 1 of 5,1,freeze,2214
A3GIIL73GE2CBQ,testBlock,centre_mouse,80,807,reveal,im0000050.jpg,N_1.png,1,N_2.png,2,N_3.png,3,N_4.png,4,Y_1.png,1,Y_2.png,2,Y_3.png,3,Y_4.png,4,confidence.png,1,guessing.png,2,respond_yes.png,3,respond_no.png,4,Word 39 of 80,1,Image 1 of 5,1,reveal.png,5
A3GIIL73GE2CBQ,testBlock,absent_trial,81,1798,no_4,im0000050.jpg,N_1.png,1,N_2.png,2,N_3.png,3,N_4.png,4,Y_1.png,1,Y_2.png,2,Y_3.png,3,Y_4.png,4,confidence.png,1,guessing.png,2,respond_yes.png,3,respond_no.png,4,Word 40 of 80,1,Image 1 of 5,1,seventy,1379
A3GIIL73GE2CBQ,testBlock,centre_mouse,82,673,reveal,im0000050.jpg,N_1.png,1,N_2.png,2,N_3.png,3,N_4.png,4,Y_1.png,1,Y_2.png,2,Y_3.png,3,Y_4.png,4,confidence.png,1,guessing.png,2,respond_yes.png,3,respond_no.png,4,Word 40 of 80,1,Image 1 of 5,1,reveal.png,5
A3GIIL73GE2CBQ,testBlock,absent_trial,83,790,no_4,im0000050.jpg,N_1.png,1,N_2.png,2,N_3.png,3,N_4.png,4,Y_1.png,1,Y_2.png,2,Y_3.png,3,Y_4.png,4,confidence.png,1,guessing.png,2,respond_yes.png,3,respond_no.png,4,Word 41 of 80,1,Image 1 of 5,1,table-cloth,1656
A3GIIL73GE2CBQ,testBlock,centre_mouse,84,694,reveal,im0000050.jpg,N_1.png,1,N_2.png,2,N_3.png,3,N_4.png,4,Y_1.png,1,Y_2.png,2,Y_3.png,3,Y_4.png,4,confidence.png,1,guessing.png,2,respond_yes.png,3,respond_no.png,4,Word 41 of 80,1,Image 1 of 5,1,reveal.png,5
A3GIIL73GE2CBQ,testBlock,absent_trial,85,1658,yes_1,im0000050.jpg,N_1.png,1,N_2.png,2,N_3.png,3,N_4.png,4,Y_1.png,1,Y_2.png,2,Y_3.png,3,Y_4.png,4,confidence.png,1,guessing.png,2,respond_yes.png,3,respond_no.png,4,Word 42 of 80,1,Image 1 of 5,1,grey-shirt,2982
A3GIIL73GE2CBQ,testBlock,centre_mouse,86,906,reveal,im0000050.jpg,N_1.png,1,N_2.png,2,N_3.png,3,N_4.png,4,Y_1.png,1,Y_2.png,2,Y_3.png,3,Y_4.png,4,confidence.png,1,guessing.png,2,respond_yes.png,3,respond_no.png,4,Word 42 of 80,1,Image 1 of 5,1,reveal.png,5
A3GIIL73GE2CBQ,testBlock,absent_trial,87,3048,no_3,im0000050.jpg,N_1.png,1,N_2.png,2,N_3.png,3,N_4.png,4,Y_1.png,1,Y_2.png,2,Y_3.png,3,Y_4.png,4,confidence.png,1,guessing.png,2,respond_yes.png,3,respond_no.png,4,Word 43 of 80,1,Image 1 of 5,1,bulb,2471
A3GIIL73GE2CBQ,testBlock,centre_mouse,88,463,reveal,im0000050.jpg,N_1.png,1,N_2.png,2,N_3.png,3,N_4.png,4,Y_1.png,1,Y_2.png,2,Y_3.png,3,Y_4.png,4,confidence.png,1,guessing.png,2,respond_yes.png,3,respond_no.png,4,Word 43 of 80,1,Image 1 of 5,1,reveal.png,5
A3GIIL73GE2CBQ,testBlock,present_trial,89,1660,no_4,im0000050.jpg,N_1.png,1,N_2.png,2,N_3.png,3,N_4.png,4,Y_1.png,1,Y_2.png,2,Y_3.png,3,Y_4.png,4,confidence.png,1,guessing.png,2,respond_yes.png,3,respond_no.png,4,Word 44 of 80,1,Image 1 of 5,1,water,38
A3GIIL73GE2CBQ,testBlock,centre_mouse,90,380,reveal,im0000050.jpg,N_1.png,1,N_2.png,2,N_3.png,3,N_4.png,4,Y_1.png,1,Y_2.png,2,Y_3.png,3,Y_4.png,4,confidence.png,1,guessing.png,2,respond_yes.png,3,respond_no.png,4,Word 44 of 80,1,Image 1 of 5,1,reveal.png,5
A3GIIL73GE2CBQ,testBlock,present_trial,91,2309,yes_1,im0000050.jpg,N_1.png,1,N_2.png,2,N_3.png,3,N_4.png,4,Y_1.png,1,Y_2.png,2,Y_3.png,3,Y_4.png,4,confidence.png,1,guessing.png,2,respond_yes.png,3,respond_no.png,4,Word 45 of 80,1,Image 1 of 5,1,woman,11
A3GIIL73GE2CBQ,testBlock,centre_mouse,92,668,reveal,im0000050.jpg,N_1.png,1,N_2.png,2,N_3.png,3,N_4.png,4,Y_1.png,1,Y_2.png,2,Y_3.png,3,Y_4.png,4,confidence.png,1,guessing.png,2,respond_yes.png,3,respond_no.png,4,Word 45 of 80,1,Image 1 of 5,1,reveal.png,5
A3GIIL73GE2CBQ,testBlock,present_trial,93,1713,yes_1,im0000050.jpg,N_1.png,1,N_2.png,2,N_3.png,3,N_4.png,4,Y_1.png,1,Y_2.png,2,Y_3.png,3,Y_4.png,4,confidence.png,1,guessing.png,2,respond_yes.png,3,respond_no.png,4,Word 46 of 80,1,Image 1 of 5,1,hat,30
A3GIIL73GE2CBQ,testBlock,centre_mouse,94,494,reveal,im0000050.jpg,N_1.png,1,N_2.png,2,N_3.png,3,N_4.png,4,Y_1.png,1,Y_2.png,2,Y_3.png,3,Y_4.png,4,confidence.png,1,guessing.png,2,respond_yes.png,3,respond_no.png,4,Word 46 of 80,1,Image 1 of 5,1,reveal.png,5
A3GIIL73GE2CBQ,testBlock,present_trial,95,2067,yes_2,im0000050.jpg,N_1.png,1,N_2.png,2,N_3.png,3,N_4.png,4,Y_1.png,1,Y_2.png,2,Y_3.png,3,Y_4.png,4,confidence.png,1,guessing.png,2,respond_yes.png,3,respond_no.png,4,Word 47 of 80,1,Image 1 of 5,1,calm,34
A3GIIL73GE2CBQ,testBlock,centre_mouse,96,817,reveal,im0000050.jpg,N_1.png,1,N_2.png,2,N_3.png,3,N_4.png,4,Y_1.png,1,Y_2.png,2,Y_3.png,3,Y_4.png,4,confidence.png,1,guessing.png,2,respond_yes.png,3,respond_no.png,4,Word 47 of 80,1,Image 1 of 5,1,reveal.png,5
A3GIIL73GE2CBQ,testBlock,absent_trial,97,4196,yes_1,im0000050.jpg,N_1.png,1,N_2.png,2,N_3.png,3,N_4.png,4,Y_1.png,1,Y_2.png,2,Y_3.png,3,Y_4.png,4,confidence.png,1,guessing.png,2,respond_yes.png,3,respond_no.png,4,Word 48 of 80,1,Image 1 of 5,1,plum,29
A3GIIL73GE2CBQ,testBlock,centre_mouse,98,817,reveal,im0000050.jpg,N_1.png,1,N_2.png,2,N_3.png,3,N_4.png,4,Y_1.png,1,Y_2.png,2,Y_3.png,3,Y_4.png,4,confidence.png,1,guessing.png,2,respond_yes.png,3,respond_no.png,4,Word 48 of 80,1,Image 1 of 5,1,reveal.png,5
A3GIIL73GE2CBQ,testBlock,absent_trial,99,1736,no_4,im0000050.jpg,N_1.png,1,N_2.png,2,N_3.png,3,N_4.png,4,Y_1.png,1,Y_2.png,2,Y_3.png,3,Y_4.png,4,confidence.png,1,guessing.png,2,respond_yes.png,3,respond_no.png,4,Word 49 of 80,1,Image 1 of 5,1,finish,501
A3GIIL73GE2CBQ,testBlock,centre_mouse,100,435,reveal,im0000050.jpg,N_1.png,1,N_2.png,2,N_3.png,3,N_4.png,4,Y_1.png,1,Y_2.png,2,Y_3.png,3,Y_4.png,4,confidence.png,1,guessing.png,2,respond_yes.png,3,respond_no.png,4,Word 49 of 80,1,Image 1 of 5,1,reveal.png,5
A3GIIL73GE2CBQ,testBlock,present_trial,101,1065,no_4,im0000050.jpg,N_1.png,1,N_2.png,2,N_3.png,3,N_4.png,4,Y_1.png,1,Y_2.png,2,Y_3.png,3,Y_4.png,4,confidence.png,1,guessing.png,2,respond_yes.png,3,respond_no.png,4,Word 50 of 80,1,Image 1 of 5,1,good,44
A3GIIL73GE2CBQ,testBlock,centre_mouse,102,671,reveal,im0000050.jpg,N_1.png,1,N_2.png,2,N_3.png,3,N_4.png,4,Y_1.png,1,Y_2.png,2,Y_3.png,3,Y_4.png,4,confidence.png,1,guessing.png,2,respond_yes.png,3,respond_no.png,4,Word 50 of 80,1,Image 1 of 5,1,reveal.png,5
A3GIIL73GE2CBQ,testBlock,present_trial,103,1124,yes_4,im0000050.jpg,N_1.png,1,N_2.png,2,N_3.png,3,N_4.png,4,Y_1.png,1,Y_2.png,2,Y_3.png,3,Y_4.png,4,confidence.png,1,guessing.png,2,respond_yes.png,3,respond_no.png,4,Word 51 of 80,1,Image 1 of 5,1,fruit-store,50
A3GIIL73GE2CBQ,testBlock,centre_mouse,104,633,reveal,im0000050.jpg,N_1.png,1,N_2.png,2,N_3.png,3,N_4.png,4,Y_1.png,1,Y_2.png,2,Y_3.png,3,Y_4.png,4,confidence.png,1,guessing.png,2,respond_yes.png,3,respond_no.png,4,Word 51 of 80,1,Image 1 of 5,1,reveal.png,5
A3GIIL73GE2CBQ,testBlock,present_trial,105,1744,yes_1,im0000050.jpg,N_1.png,1,N_2.png,2,N_3.png,3,N_4.png,4,Y_1.png,1,Y_2.png,2,Y_3.png,3,Y_4.png,4,confidence.png,1,guessing.png,2,respond_yes.png,3,respond_no.png,4,Word 52 of 80,1,Image 1 of 5,1,lady,18
A3GIIL73GE2CBQ,testBlock,centre_mouse,106,778,reveal,im0000050.jpg,N_1.png,1,N_2.png,2,N_3.png,3,N_4.png,4,Y_1.png,1,Y_2.png,2,Y_3.png,3,Y_4.png,4,confidence.png,1,guessing.png,2,respond_yes.png,3,respond_no.png,4,Word 52 of 80,1,Image 1 of 5,1,reveal.png,5
A3GIIL73GE2CBQ,testBlock,present_trial,107,1387,yes_3,im0000050.jpg,N_1.png,1,N_2.png,2,N_3.png,3,N_4.png,4,Y_1.png,1,Y_2.png,2,Y_3.png,3,Y_4.png,4,confidence.png,1,guessing.png,2,respond_yes.png,3,respond_no.png,4,Word 53 of 80,1,Image 1 of 5,1,person,14
A3GIIL73GE2CBQ,testBlock,centre_mouse,108,486,reveal,im0000050.jpg,N_1.png,1,N_2.png,2,N_3.png,3,N_4.png,4,Y_1.png,1,Y_2.png,2,Y_3.png,3,Y_4.png,4,confidence.png,1,guessing.png,2,respond_yes.png,3,respond_no.png,4,Word 53 of 80,1,Image 1 of 5,1,reveal.png,5
A3GIIL73GE2CBQ,testBlock,absent_trial,109,2836,no_1,im0000050.jpg,N_1.png,1,N_2.png,2,N_3.png,3,N_4.png,4,Y_1.png,1,Y_2.png,2,Y_3.png,3,Y_4.png,4,confidence.png,1,guessing.png,2,respond_yes.png,3,respond_no.png,4,Word 54 of 80,1,Image 1 of 5,1,canada,1717
A3GIIL73GE2CBQ,testBlock,centre_mouse,110,1059,reveal,im0000050.jpg,N_1.png,1,N_2.png,2,N_3.png,3,N_4.png,4,Y_1.png,1,Y_2.png,2,Y_3.png,3,Y_4.png,4,confidence.png,1,guessing.png,2,respond_yes.png,3,respond_no.png,4,Word 54 of 80,1,Image 1 of 5,1,reveal.png,5
A3GIIL73GE2CBQ,testBlock,present_trial,111,969,yes_4,im0000050.jpg,N_1.png,1,N_2.png,2,N_3.png,3,N_4.png,4,Y_1.png,1,Y_2.png,2,Y_3.png,3,Y_4.png,4,confidence.png,1,guessing.png,2,respond_yes.png,3,respond_no.png,4,Word 55 of 80,1,Image 1 of 5,1,shop,3
A3GIIL73GE2CBQ,testBlock,centre_mouse,112,770,reveal,im0000050.jpg,N_1.png,1,N_2.png,2,N_3.png,3,N_4.png,4,Y_1.png,1,Y_2.png,2,Y_3.png,3,Y_4.png,4,confidence.png,1,guessing.png,2,respond_yes.png,3,respond_no.png,4,Word 55 of 80,1,Image 1 of 5,1,reveal.png,5
A3GIIL73GE2CBQ,testBlock,present_trial,113,2237,yes_2,im0000050.jpg,N_1.png,1,N_2.png,2,N_3.png,3,N_4.png,4,Y_1.png,1,Y_2.png,2,Y_3.png,3,Y_4.png,4,confidence.png,1,guessing.png,2,respond_yes.png,3,respond_no.png,4,Word 56 of 80,1,Image 1 of 5,1,three-person,24
A3GIIL73GE2CBQ,testBlock,centre_mouse,114,693,reveal,im0000050.jpg,N_1.png,1,N_2.png,2,N_3.png,3,N_4.png,4,Y_1.png,1,Y_2.png,2,Y_3.png,3,Y_4.png,4,confidence.png,1,guessing.png,2,respond_yes.png,3,respond_no.png,4,Word 56 of 80,1,Image 1 of 5,1,reveal.png,5
A3GIIL73GE2CBQ,testBlock,absent_trial,115,1451,yes_1,im0000050.jpg,N_1.png,1,N_2.png,2,N_3.png,3,N_4.png,4,Y_1.png,1,Y_2.png,2,Y_3.png,3,Y_4.png,4,confidence.png,1,guessing.png,2,respond_yes.png,3,respond_no.png,4,Word 57 of 80,1,Image 1 of 5,1,man-and-woman,1514
A3GIIL73GE2CBQ,testBlock,centre_mouse,116,785,reveal,im0000050.jpg,N_1.png,1,N_2.png,2,N_3.png,3,N_4.png,4,Y_1.png,1,Y_2.png,2,Y_3.png,3,Y_4.png,4,confidence.png,1,guessing.png,2,respond_yes.png,3,respond_no.png,4,Word 57 of 80,1,Image 1 of 5,1,reveal.png,5
A3GIIL73GE2CBQ,testBlock,present_trial,117,1497,yes_1,im0000050.jpg,N_1.png,1,N_2.png,2,N_3.png,3,N_4.png,4,Y_1.png,1,Y_2.png,2,Y_3.png,3,Y_4.png,4,confidence.png,1,guessing.png,2,respond_yes.png,3,respond_no.png,4,Word 58 of 80,1,Image 1 of 5,1,banana,10
A3GIIL73GE2CBQ,testBlock,centre_mouse,118,752,reveal,im0000050.jpg,N_1.png,1,N_2.png,2,N_3.png,3,N_4.png,4,Y_1.png,1,Y_2.png,2,Y_3.png,3,Y_4.png,4,confidence.png,1,guessing.png,2,respond_yes.png,3,respond_no.png,4,Word 58 of 80,1,Image 1 of 5,1,reveal.png,5
A3GIIL73GE2CBQ,testBlock,absent_trial,119,2153,no_4,im0000050.jpg,N_1.png,1,N_2.png,2,N_3.png,3,N_4.png,4,Y_1.png,1,Y_2.png,2,Y_3.png,3,Y_4.png,4,confidence.png,1,guessing.png,2,respond_yes.png,3,respond_no.png,4,Word 59 of 80,1,Image 1 of 5,1,on-a-balcony,1899
A3GIIL73GE2CBQ,testBlock,centre_mouse,120,1269,reveal,im0000050.jpg,N_1.png,1,N_2.png,2,N_3.png,3,N_4.png,4,Y_1.png,1,Y_2.png,2,Y_3.png,3,Y_4.png,4,confidence.png,1,guessing.png,2,respond_yes.png,3,respond_no.png,4,Word 59 of 80,1,Image 1 of 5,1,reveal.png,5
A3GIIL73GE2CBQ,testBlock,present_trial,121,2629,yes_2,im0000050.jpg,N_1.png,1,N_2.png,2,N_3.png,3,N_4.png,4,Y_1.png,1,Y_2.png,2,Y_3.png,3,Y_4.png,4,confidence.png,1,guessing.png,2,respond_yes.png,3,respond_no.png,4,Word 60 of 80,1,Image 1 of 5,1,sale,45
A3GIIL73GE2CBQ,testBlock,centre_mouse,122,911,reveal,im0000050.jpg,N_1.png,1,N_2.png,2,N_3.png,3,N_4.png,4,Y_1.png,1,Y_2.png,2,Y_3.png,3,Y_4.png,4,confidence.png,1,guessing.png,2,respond_yes.png,3,respond_no.png,4,Word 60 of 80,1,Image 1 of 5,1,reveal.png,5
A3GIIL73GE2CBQ,testBlock,absent_trial,123,1803,no_4,im0000050.jpg,N_1.png,1,N_2.png,2,N_3.png,3,N_4.png,4,Y_1.png,1,Y_2.png,2,Y_3.png,3,Y_4.png,4,confidence.png,1,guessing.png,2,respond_yes.png,3,respond_no.png,4,Word 61 of 80,1,Image 1 of 5,1,energy,1281
A3GIIL73GE2CBQ,testBlock,centre_mouse,124,419,reveal,im0000050.jpg,N_1.png,1,N_2.png,2,N_3.png,3,N_4.png,4,Y_1.png,1,Y_2.png,2,Y_3.png,3,Y_4.png,4,confidence.png,1,guessing.png,2,respond_yes.png,3,respond_no.png,4,Word 61 of 80,1,Image 1 of 5,1,reveal.png,5
A3GIIL73GE2CBQ,testBlock,absent_trial,125,770,no_4,im0000050.jpg,N_1.png,1,N_2.png,2,N_3.png,3,N_4.png,4,Y_1.png,1,Y_2.png,2,Y_3.png,3,Y_4.png,4,confidence.png,1,guessing.png,2,respond_yes.png,3,respond_no.png,4,Word 62 of 80,1,Image 1 of 5,1,anticipate,1594
A3GIIL73GE2CBQ,testBlock,centre_mouse,126,434,reveal,im0000050.jpg,N_1.png,1,N_2.png,2,N_3.png,3,N_4.png,4,Y_1.png,1,Y_2.png,2,Y_3.png,3,Y_4.png,4,confidence.png,1,guessing.png,2,respond_yes.png,3,respond_no.png,4,Word 62 of 80,1,Image 1 of 5,1,reveal.png,5
A3GIIL73GE2CBQ,testBlock,present_trial,127,1585,yes_1,im0000050.jpg,N_1.png,1,N_2.png,2,N_3.png,3,N_4.png,4,Y_1.png,1,Y_2.png,2,Y_3.png,3,Y_4.png,4,confidence.png,1,guessing.png,2,respond_yes.png,3,respond_no.png,4,Word 63 of 80,1,Image 1 of 5,1,orange,7
A3GIIL73GE2CBQ,testBlock,centre_mouse,128,418,reveal,im0000050.jpg,N_1.png,1,N_2.png,2,N_3.png,3,N_4.png,4,Y_1.png,1,Y_2.png,2,Y_3.png,3,Y_4.png,4,confidence.png,1,guessing.png,2,respond_yes.png,3,respond_no.png,4,Word 63 of 80,1,Image 1 of 5,1,reveal.png,5
A3GIIL73GE2CBQ,testBlock,absent_trial,129,2242,no_1,im0000050.jpg,N_1.png,1,N_2.png,2,N_3.png,3,N_4.png,4,Y_1.png,1,Y_2.png,2,Y_3.png,3,Y_4.png,4,confidence.png,1,guessing.png,2,respond_yes.png,3,respond_no.png,4,Word 64 of 80,1,Image 1 of 5,1,number,671
A3GIIL73GE2CBQ,testBlock,centre_mouse,130,633,reveal,im0000050.jpg,N_1.png,1,N_2.png,2,N_3.png,3,N_4.png,4,Y_1.png,1,Y_2.png,2,Y_3.png,3,Y_4.png,4,confidence.png,1,guessing.png,2,respond_yes.png,3,respond_no.png,4,Word 64 of 80,1,Image 1 of 5,1,reveal.png,5
A3GIIL73GE2CBQ,testBlock,present_trial,131,3676,no_3,im0000050.jpg,N_1.png,1,N_2.png,2,N_3.png,3,N_4.png,4,Y_1.png,1,Y_2.png,2,Y_3.png,3,Y_4.png,4,confidence.png,1,guessing.png,2,respond_yes.png,3,respond_no.png,4,Word 65 of 80,1,Image 1 of 5,1,street,27
A3GIIL73GE2CBQ,testBlock,centre_mouse,132,412,reveal,im0000050.jpg,N_1.png,1,N_2.png,2,N_3.png,3,N_4.png,4,Y_1.png,1,Y_2.png,2,Y_3.png,3,Y_4.png,4,confidence.png,1,guessing.png,2,respond_yes.png,3,respond_no.png,4,Word 65 of 80,1,Image 1 of 5,1,reveal.png,5
A3GIIL73GE2CBQ,testBlock,present_trial,133,1483,yes_2,im0000050.jpg,N_1.png,1,N_2.png,2,N_3.png,3,N_4.png,4,Y_1.png,1,Y_2.png,2,Y_3.png,3,Y_4.png,4,confidence.png,1,guessing.png,2,respond_yes.png,3,respond_no.png,4,Word 66 of 80,1,Image 1 of 5,1,money,26
A3GIIL73GE2CBQ,testBlock,centre_mouse,134,754,reveal,im0000050.jpg,N_1.png,1,N_2.png,2,N_3.png,3,N_4.png,4,Y_1.png,1,Y_2.png,2,Y_3.png,3,Y_4.png,4,confidence.png,1,guessing.png,2,respond_yes.png,3,respond_no.png,4,Word 66 of 80,1,Image 1 of 5,1,reveal.png,5
A3GIIL73GE2CBQ,testBlock,absent_trial,135,1947,no_1,im0000050.jpg,N_1.png,1,N_2.png,2,N_3.png,3,N_4.png,4,Y_1.png,1,Y_2.png,2,Y_3.png,3,Y_4.png,4,confidence.png,1,guessing.png,2,respond_yes.png,3,respond_no.png,4,Word 67 of 80,1,Image 1 of 5,1,bat,523
A3GIIL73GE2CBQ,testBlock,centre_mouse,136,750,reveal,im0000050.jpg,N_1.png,1,N_2.png,2,N_3.png,3,N_4.png,4,Y_1.png,1,Y_2.png,2,Y_3.png,3,Y_4.png,4,confidence.png,1,guessing.png,2,respond_yes.png,3,respond_no.png,4,Word 67 of 80,1,Image 1 of 5,1,reveal.png,5
A3GIIL73GE2CBQ,testBlock,absent_trial,137,2106,no_4,im0000050.jpg,N_1.png,1,N_2.png,2,N_3.png,3,N_4.png,4,Y_1.png,1,Y_2.png,2,Y_3.png,3,Y_4.png,4,confidence.png,1,guessing.png,2,respond_yes.png,3,respond_no.png,4,Word 68 of 80,1,Image 1 of 5,1,flight,774
A3GIIL73GE2CBQ,testBlock,centre_mouse,138,390,reveal,im0000050.jpg,N_1.png,1,N_2.png,2,N_3.png,3,N_4.png,4,Y_1.png,1,Y_2.png,2,Y_3.png,3,Y_4.png,4,confidence.png,1,guessing.png,2,respond_yes.png,3,respond_no.png,4,Word 68 of 80,1,Image 1 of 5,1,reveal.png,5
A3GIIL73GE2CBQ,testBlock,absent_trial,139,1030,no_4,im0000050.jpg,N_1.png,1,N_2.png,2,N_3.png,3,N_4.png,4,Y_1.png,1,Y_2.png,2,Y_3.png,3,Y_4.png,4,confidence.png,1,guessing.png,2,respond_yes.png,3,respond_no.png,4,Word 69 of 80,1,Image 1 of 5,1,primitive,478
A3GIIL73GE2CBQ,testBlock,centre_mouse,140,269,reveal,im0000050.jpg,N_1.png,1,N_2.png,2,N_3.png,3,N_4.png,4,Y_1.png,1,Y_2.png,2,Y_3.png,3,Y_4.png,4,confidence.png,1,guessing.png,2,respond_yes.png,3,respond_no.png,4,Word 69 of 80,1,Image 1 of 5,1,reveal.png,5
A3GIIL73GE2CBQ,testBlock,absent_trial,141,817,no_4,im0000050.jpg,N_1.png,1,N_2.png,2,N_3.png,3,N_4.png,4,Y_1.png,1,Y_2.png,2,Y_3.png,3,Y_4.png,4,confidence.png,1,guessing.png,2,respond_yes.png,3,respond_no.png,4,Word 70 of 80,1,Image 1 of 5,1,old,53
A3GIIL73GE2CBQ,testBlock,centre_mouse,142,289,reveal,im0000050.jpg,N_1.png,1,N_2.png,2,N_3.png,3,N_4.png,4,Y_1.png,1,Y_2.png,2,Y_3.png,3,Y_4.png,4,confidence.png,1,guessing.png,2,respond_yes.png,3,respond_no.png,4,Word 70 of 80,1,Image 1 of 5,1,reveal.png,5
A3GIIL73GE2CBQ,testBlock,present_trial,143,2261,no_1,im0000050.jpg,N_1.png,1,N_2.png,2,N_3.png,3,N_4.png,4,Y_1.png,1,Y_2.png,2,Y_3.png,3,Y_4.png,4,confidence.png,1,guessing.png,2,respond_yes.png,3,respond_no.png,4,Word 71 of 80,1,Image 1 of 5,1,morning,36
A3GIIL73GE2CBQ,testBlock,centre_mouse,144,701,reveal,im0000050.jpg,N_1.png,1,N_2.png,2,N_3.png,3,N_4.png,4,Y_1.png,1,Y_2.png,2,Y_3.png,3,Y_4.png,4,confidence.png,1,guessing.png,2,respond_yes.png,3,respond_no.png,4,Word 71 of 80,1,Image 1 of 5,1,reveal.png,5
A3GIIL73GE2CBQ,testBlock,absent_trial,145,1121,no_1,im0000050.jpg,N_1.png,1,N_2.png,2,N_3.png,3,N_4.png,4,Y_1.png,1,Y_2.png,2,Y_3.png,3,Y_4.png,4,confidence.png,1,guessing.png,2,respond_yes.png,3,respond_no.png,4,Word 72 of 80,1,Image 1 of 5,1,cheese,2169
A3GIIL73GE2CBQ,testBlock,centre_mouse,146,388,reveal,im0000050.jpg,N_1.png,1,N_2.png,2,N_3.png,3,N_4.png,4,Y_1.png,1,Y_2.png,2,Y_3.png,3,Y_4.png,4,confidence.png,1,guessing.png,2,respond_yes.png,3,respond_no.png,4,Word 72 of 80,1,Image 1 of 5,1,reveal.png,5
A3GIIL73GE2CBQ,testBlock,present_trial,147,1780,yes_4,im0000050.jpg,N_1.png,1,N_2.png,2,N_3.png,3,N_4.png,4,Y_1.png,1,Y_2.png,2,Y_3.png,3,Y_4.png,4,confidence.png,1,guessing.png,2,respond_yes.png,3,respond_no.png,4,Word 73 of 80,1,Image 1 of 5,1,fruits-vegetables,46
A3GIIL73GE2CBQ,testBlock,centre_mouse,148,751,reveal,im0000050.jpg,N_1.png,1,N_2.png,2,N_3.png,3,N_4.png,4,Y_1.png,1,Y_2.png,2,Y_3.png,3,Y_4.png,4,confidence.png,1,guessing.png,2,respond_yes.png,3,respond_no.png,4,Word 73 of 80,1,Image 1 of 5,1,reveal.png,5
A3GIIL73GE2CBQ,testBlock,present_trial,149,1849,yes_1,im0000050.jpg,N_1.png,1,N_2.png,2,N_3.png,3,N_4.png,4,Y_1.png,1,Y_2.png,2,Y_3.png,3,Y_4.png,4,confidence.png,1,guessing.png,2,respond_yes.png,3,respond_no.png,4,Word 74 of 80,1,Image 1 of 5,1,old-person,28
A3GIIL73GE2CBQ,testBlock,centre_mouse,150,561,reveal,im0000050.jpg,N_1.png,1,N_2.png,2,N_3.png,3,N_4.png,4,Y_1.png,1,Y_2.png,2,Y_3.png,3,Y_4.png,4,confidence.png,1,guessing.png,2,respond_yes.png,3,respond_no.png,4,Word 74 of 80,1,Image 1 of 5,1,reveal.png,5
A3GIIL73GE2CBQ,testBlock,absent_trial,151,1666,no_4,im0000050.jpg,N_1.png,1,N_2.png,2,N_3.png,3,N_4.png,4,Y_1.png,1,Y_2.png,2,Y_3.png,3,Y_4.png,4,confidence.png,1,guessing.png,2,respond_yes.png,3,respond_no.png,4,Word 75 of 80,1,Image 1 of 5,1,firework,313
A3GIIL73GE2CBQ,testBlock,centre_mouse,152,1490,reveal,im0000050.jpg,N_1.png,1,N_2.png,2,N_3.png,3,N_4.png,4,Y_1.png,1,Y_2.png,2,Y_3.png,3,Y_4.png,4,confidence.png,1,guessing.png,2,respond_yes.png,3,respond_no.png,4,Word 75 of 80,1,Image 1 of 5,1,reveal.png,5
A3GIIL73GE2CBQ,testBlock,present_trial,153,2182,no_4,im0000050.jpg,N_1.png,1,N_2.png,2,N_3.png,3,N_4.png,4,Y_1.png,1,Y_2.png,2,Y_3.png,3,Y_4.png,4,confidence.png,1,guessing.png,2,respond_yes.png,3,respond_no.png,4,Word 76 of 80,1,Image 1 of 5,1,cap,12
A3GIIL73GE2CBQ,testBlock,centre_mouse,154,1844,reveal,im0000050.jpg,N_1.png,1,N_2.png,2,N_3.png,3,N_4.png,4,Y_1.png,1,Y_2.png,2,Y_3.png,3,Y_4.png,4,confidence.png,1,guessing.png,2,respond_yes.png,3,respond_no.png,4,Word 76 of 80,1,Image 1 of 5,1,reveal.png,5
A3GIIL73GE2CBQ,testBlock,present_trial,155,2331,yes_1,im0000050.jpg,N_1.png,1,N_2.png,2,N_3.png,3,N_4.png,4,Y_1.png,1,Y_2.png,2,Y_3.png,3,Y_4.png,4,confidence.png,1,guessing.png,2,respond_yes.png,3,respond_no.png,4,Word 77 of 80,1,Image 1 of 5,1,apple,6
A3GIIL73GE2CBQ,testBlock,centre_mouse,156,497,reveal,im0000050.jpg,N_1.png,1,N_2.png,2,N_3.png,3,N_4.png,4,Y_1.png,1,Y_2.png,2,Y_3.png,3,Y_4.png,4,confidence.png,1,guessing.png,2,respond_yes.png,3,respond_no.png,4,Word 77 of 80,1,Image 1 of 5,1,reveal.png,5
A3GIIL73GE2CBQ,testBlock,absent_trial,157,3671,no_1,im0000050.jpg,N_1.png,1,N_2.png,2,N_3.png,3,N_4.png,4,Y_1.png,1,Y_2.png,2,Y_3.png,3,Y_4.png,4,confidence.png,1,guessing.png,2,respond_yes.png,3,respond_no.png,4,Word 78 of 80,1,Image 1 of 5,1,triple-people,2832
A3GIIL73GE2CBQ,testBlock,centre_mouse,158,569,reveal,im0000050.jpg,N_1.png,1,N_2.png,2,N_3.png,3,N_4.png,4,Y_1.png,1,Y_2.png,2,Y_3.png,3,Y_4.png,4,confidence.png,1,guessing.png,2,respond_yes.png,3,respond_no.png,4,Word 78 of 80,1,Image 1 of 5,1,reveal.png,5
A3GIIL73GE2CBQ,testBlock,present_trial,159,1625,no_2,im0000050.jpg,N_1.png,1,N_2.png,2,N_3.png,3,N_4.png,4,Y_1.png,1,Y_2.png,2,Y_3.png,3,Y_4.png,4,confidence.png,1,guessing.png,2,respond_yes.png,3,respond_no.png,4,Word 79 of 80,1,Image 1 of 5,1,bag,42
A3GIIL73GE2CBQ,testBlock,centre_mouse,160,473,reveal,im0000050.jpg,N_1.png,1,N_2.png,2,N_3.png,3,N_4.png,4,Y_1.png,1,Y_2.png,2,Y_3.png,3,Y_4.png,4,confidence.png,1,guessing.png,2,respond_yes.png,3,respond_no.png,4,Word 79 of 80,1,Image 1 of 5,1,reveal.png,5
A3GIIL73GE2CBQ,testBlock,absent_trial,161,4145,no_4,im0000050.jpg,N_1.png,1,N_2.png,2,N_3.png,3,N_4.png,4,Y_1.png,1,Y_2.png,2,Y_3.png,3,Y_4.png,4,confidence.png,1,guessing.png,2,respond_yes.png,3,respond_no.png,4,Word 80 of 80,1,Image 1 of 5,1,household,2470
A3GIIL73GE2CBQ,testBlock,centre_mouse,162,928,reveal,im0000050.jpg,N_1.png,1,N_2.png,2,N_3.png,3,N_4.png,4,Y_1.png,1,Y_2.png,2,Y_3.png,3,Y_4.png,4,confidence.png,1,guessing.png,2,respond_yes.png,3,respond_no.png,4,Word 80 of 80,1,Image 1 of 5,1,reveal.png,5
A10U3R76C454PP,practiceBlock,practice,1,0,0,Picture1.jpg,+,1,Picture1.jpg,1,mask1.jpg,1,mask2.jpg,2,mask5.jpg,5,mask1.jpg,1,mask5.jpg,5,0,0,0,0,0,0,0,0,0,0,0,0,0,0,0,0
A10U3R76C454PP,practiceBlock,centre_mouse,2,16011,reveal,Picture1.jpg,N_1.png,1,N_2.png,2,N_3.png,3,N_4.png,4,Y_1.png,1,Y_2.png,2,Y_3.png,3,Y_4.png,4,confidence.png,1,guessing.png,2,respond_yes.png,3,respond_no.png,4,Word 0 of 12,1,Image 1 of 3,1,reveal.png,5
A10U3R76C454PP,practiceBlock,practice_trial,3,5914,no_4,Picture1.jpg,N_1.png,1,N_2.png,2,N_3.png,3,N_4.png,4,Y_1.png,1,Y_2.png,2,Y_3.png,3,Y_4.png,4,confidence.png,1,guessing.png,2,respond_yes.png,3,respond_no.png,4,Word 1 of 12,1,Image 1 of 3,1,red,3
A10U3R76C454PP,practiceBlock,centre_mouse,4,3222,reveal,Picture1.jpg,N_1.png,1,N_2.png,2,N_3.png,3,N_4.png,4,Y_1.png,1,Y_2.png,2,Y_3.png,3,Y_4.png,4,confidence.png,1,guessing.png,2,respond_yes.png,3,respond_no.png,4,Word 1 of 12,1,Image 1 of 3,1,reveal.png,5
A10U3R76C454PP,practiceBlock,absent_trial,5,3486,no_4,Picture1.jpg,N_1.png,1,N_2.png,2,N_3.png,3,N_4.png,4,Y_1.png,1,Y_2.png,2,Y_3.png,3,Y_4.png,4,confidence.png,1,guessing.png,2,respond_yes.png,3,respond_no.png,4,Word 2 of 12,1,Image 1 of 3,1,golf-course,522
A10U3R76C454PP,practiceBlock,centre_mouse,6,1161,reveal,Picture1.jpg,N_1.png,1,N_2.png,2,N_3.png,3,N_4.png,4,Y_1.png,1,Y_2.png,2,Y_3.png,3,Y_4.png,4,confidence.png,1,guessing.png,2,respond_yes.png,3,respond_no.png,4,Word 2 of 12,1,Image 1 of 3,1,reveal.png,5
A10U3R76C454PP,practiceBlock,practice_trial,7,1545,no_4,Picture1.jpg,N_1.png,1,N_2.png,2,N_3.png,3,N_4.png,4,Y_1.png,1,Y_2.png,2,Y_3.png,3,Y_4.png,4,confidence.png,1,guessing.png,2,respond_yes.png,3,respond_no.png,4,Word 3 of 12,1,Image 1 of 3,1,outline,5
A10U3R76C454PP,practiceBlock,centre_mouse,8,882,reveal,Picture1.jpg,N_1.png,1,N_2.png,2,N_3.png,3,N_4.png,4,Y_1.png,1,Y_2.png,2,Y_3.png,3,Y_4.png,4,confidence.png,1,guessing.png,2,respond_yes.png,3,respond_no.png,4,Word 3 of 12,1,Image 1 of 3,1,reveal.png,5
A10U3R76C454PP,practiceBlock,absent_trial,9,904,no_4,Picture1.jpg,N_1.png,1,N_2.png,2,N_3.png,3,N_4.png,4,Y_1.png,1,Y_2.png,2,Y_3.png,3,Y_4.png,4,confidence.png,1,guessing.png,2,respond_yes.png,3,respond_no.png,4,Word 4 of 12,1,Image 1 of 3,1,nasa,2831
A10U3R76C454PP,practiceBlock,centre_mouse,10,838,reveal,Picture1.jpg,N_1.png,1,N_2.png,2,N_3.png,3,N_4.png,4,Y_1.png,1,Y_2.png,2,Y_3.png,3,Y_4.png,4,confidence.png,1,guessing.png,2,respond_yes.png,3,respond_no.png,4,Word 4 of 12,1,Image 1 of 3,1,reveal.png,5
A10U3R76C454PP,practiceBlock,absent_trial,11,1175,no_4,Picture1.jpg,N_1.png,1,N_2.png,2,N_3.png,3,N_4.png,4,Y_1.png,1,Y_2.png,2,Y_3.png,3,Y_4.png,4,confidence.png,1,guessing.png,2,respond_yes.png,3,respond_no.png,4,Word 5 of 12,1,Image 1 of 3,1,sea-shore,3179
A10U3R76C454PP,practiceBlock,centre_mouse,12,1028,reveal,Picture1.jpg,N_1.png,1,N_2.png,2,N_3.png,3,N_4.png,4,Y_1.png,1,Y_2.png,2,Y_3.png,3,Y_4.png,4,confidence.png,1,guessing.png,2,respond_yes.png,3,respond_no.png,4,Word 5 of 12,1,Image 1 of 3,1,reveal.png,5
A10U3R76C454PP,practiceBlock,practice_trial,13,1022,no_4,Picture1.jpg,N_1.png,1,N_2.png,2,N_3.png,3,N_4.png,4,Y_1.png,1,Y_2.png,2,Y_3.png,3,Y_4.png,4,confidence.png,1,guessing.png,2,respond_yes.png,3,respond_no.png,4,Word 6 of 12,1,Image 1 of 3,1,black,4
A10U3R76C454PP,practiceBlock,centre_mouse,14,762,reveal,Picture1.jpg,N_1.png,1,N_2.png,2,N_3.png,3,N_4.png,4,Y_1.png,1,Y_2.png,2,Y_3.png,3,Y_4.png,4,confidence.png,1,guessing.png,2,respond_yes.png,3,respond_no.png,4,Word 6 of 12,1,Image 1 of 3,1,reveal.png,5
A10U3R76C454PP,practiceBlock,practice_trial,15,1808,yes_3,Picture1.jpg,N_1.png,1,N_2.png,2,N_3.png,3,N_4.png,4,Y_1.png,1,Y_2.png,2,Y_3.png,3,Y_4.png,4,confidence.png,1,guessing.png,2,respond_yes.png,3,respond_no.png,4,Word 7 of 12,1,Image 1 of 3,1,love,2
A10U3R76C454PP,practiceBlock,centre_mouse,16,2251,reveal,Picture1.jpg,N_1.png,1,N_2.png,2,N_3.png,3,N_4.png,4,Y_1.png,1,Y_2.png,2,Y_3.png,3,Y_4.png,4,confidence.png,1,guessing.png,2,respond_yes.png,3,respond_no.png,4,Word 7 of 12,1,Image 1 of 3,1,reveal.png,5
A10U3R76C454PP,practiceBlock,absent_trial,17,5898,no_4,Picture1.jpg,N_1.png,1,N_2.png,2,N_3.png,3,N_4.png,4,Y_1.png,1,Y_2.png,2,Y_3.png,3,Y_4.png,4,confidence.png,1,guessing.png,2,respond_yes.png,3,respond_no.png,4,Word 8 of 12,1,Image 1 of 3,1,water-feature,2210
A10U3R76C454PP,practiceBlock,centre_mouse,18,984,reveal,Picture1.jpg,N_1.png,1,N_2.png,2,N_3.png,3,N_4.png,4,Y_1.png,1,Y_2.png,2,Y_3.png,3,Y_4.png,4,confidence.png,1,guessing.png,2,respond_yes.png,3,respond_no.png,4,Word 8 of 12,1,Image 1 of 3,1,reveal.png,5
A10U3R76C454PP,practiceBlock,practice_trial,19,1158,yes_4,Picture1.jpg,N_1.png,1,N_2.png,2,N_3.png,3,N_4.png,4,Y_1.png,1,Y_2.png,2,Y_3.png,3,Y_4.png,4,confidence.png,1,guessing.png,2,respond_yes.png,3,respond_no.png,4,Word 9 of 12,1,Image 1 of 3,1,heart,1
A10U3R76C454PP,practiceBlock,centre_mouse,20,947,reveal,Picture1.jpg,N_1.png,1,N_2.png,2,N_3.png,3,N_4.png,4,Y_1.png,1,Y_2.png,2,Y_3.png,3,Y_4.png,4,confidence.png,1,guessing.png,2,respond_yes.png,3,respond_no.png,4,Word 9 of 12,1,Image 1 of 3,1,reveal.png,5
A10U3R76C454PP,practiceBlock,absent_trial,21,1195,no_4,Picture1.jpg,N_1.png,1,N_2.png,2,N_3.png,3,N_4.png,4,Y_1.png,1,Y_2.png,2,Y_3.png,3,Y_4.png,4,confidence.png,1,guessing.png,2,respond_yes.png,3,respond_no.png,4,Word 10 of 12,1,Image 1 of 3,1,gadget,653
A10U3R76C454PP,practiceBlock,centre_mouse,22,921,reveal,Picture1.jpg,N_1.png,1,N_2.png,2,N_3.png,3,N_4.png,4,Y_1.png,1,Y_2.png,2,Y_3.png,3,Y_4.png,4,confidence.png,1,guessing.png,2,respond_yes.png,3,respond_no.png,4,Word 10 of 12,1,Image 1 of 3,1,reveal.png,5
A10U3R76C454PP,practiceBlock,absent_trial,23,942,no_4,Picture1.jpg,N_1.png,1,N_2.png,2,N_3.png,3,N_4.png,4,Y_1.png,1,Y_2.png,2,Y_3.png,3,Y_4.png,4,confidence.png,1,guessing.png,2,respond_yes.png,3,respond_no.png,4,Word 11 of 12,1,Image 1 of 3,1,larry,1172
A10U3R76C454PP,practiceBlock,centre_mouse,24,878,reveal,Picture1.jpg,N_1.png,1,N_2.png,2,N_3.png,3,N_4.png,4,Y_1.png,1,Y_2.png,2,Y_3.png,3,Y_4.png,4,confidence.png,1,guessing.png,2,respond_yes.png,3,respond_no.png,4,Word 11 of 12,1,Image 1 of 3,1,reveal.png,5
A10U3R76C454PP,practiceBlock,practice_trial,25,1009,no_4,Picture1.jpg,N_1.png,1,N_2.png,2,N_3.png,3,N_4.png,4,Y_1.png,1,Y_2.png,2,Y_3.png,3,Y_4.png,4,confidence.png,1,guessing.png,2,respond_yes.png,3,respond_no.png,4,Word 12 of 12,1,Image 1 of 3,1,color,6
A10U3R76C454PP,practiceBlock,centre_mouse,26,817,reveal,Picture1.jpg,N_1.png,1,N_2.png,2,N_3.png,3,N_4.png,4,Y_1.png,1,Y_2.png,2,Y_3.png,3,Y_4.png,4,confidence.png,1,guessing.png,2,respond_yes.png,3,respond_no.png,4,Word 12 of 12,1,Image 1 of 3,1,reveal.png,5
A10U3R76C454PP,practiceBlock,practice,1,0,0,Picture1.jpg,+,1,Picture2.jpg,2,mask5.jpg,5,mask5.jpg,5,mask2.jpg,2,mask3.jpg,3,mask1.jpg,1,0,0,0,0,0,0,0,0,0,0,0,0,0,0,0,0
