"subject","blockcode","trialcode","trialnum","latency","response","values.imageName","stimulusitem1","stimulusnumber1","stimulusitem2","stimulusnumber2","stimulusitem3","stimulusnumber3","stimulusitem4","stimulusnumber4","stimulusitem5","stimulusnumber5","stimulusitem6","stimulusnumber6","stimulusitem7","stimulusnumber7","stimulusitem8","stimulusnumber8","stimulusitem9","stimulusnumber9","stimulusitem10","stimulusnumber10","stimulusitem11","stimulusnumber11","stimulusitem12","stimulusnumber12","stimulusitem13","stimulusnumber13","stimulusitem14","stimulusnumber14","stimulusitem15","stimulusnumber15"
"A3KF6O09H04SP7","practiceBlock","practice","1","0","0","Picture1.jpg","+","1","Picture1.jpg","1","mask5.jpg","5","mask5.jpg","5","mask5.jpg","5","mask2.jpg","2","mask1.jpg","1","0","0","0","0","0","0","0","0","0","0","0","0","0","0","0","0"
"A3KF6O09H04SP7","practiceBlock","centre_mouse","2","5347","reveal","Picture1.jpg","N_1.png","1","N_2.png","2","N_3.png","3","N_4.png","4","Y_1.png","1","Y_2.png","2","Y_3.png","3","Y_4.png","4","confidence.png","1","guessing.png","2","respond_yes.png","3","respond_no.png","4","Word 0 of 12","1","Image 1 of 3","1","reveal.png","5"
"A3KF6O09H04SP7","practiceBlock","practice_absent_trial","3","7266","no_4","Picture1.jpg","N_1.png","1","N_2.png","2","N_3.png","3","N_4.png","4","Y_1.png","1","Y_2.png","2","Y_3.png","3","Y_4.png","4","confidence.png","1","guessing.png","2","respond_yes.png","3","respond_no.png","4","Word 1 of 12","1","Image 1 of 3","1","blanket","1"
"A3KF6O09H04SP7","practiceBlock","centre_mouse","4","1600","reveal","Picture1.jpg","N_1.png","1","N_2.png","2","N_3.png","3","N_4.png","4","Y_1.png","1","Y_2.png","2","Y_3.png","3","Y_4.png","4","confidence.png","1","guessing.png","2","respond_yes.png","3","respond_no.png","4","Word 1 of 12","1","Image 1 of 3","1","reveal.png","5"
"A3KF6O09H04SP7","practiceBlock","practice_absent_trial","5","4272","no_4","Picture1.jpg","N_1.png","1","N_2.png","2","N_3.png","3","N_4.png","4","Y_1.png","1","Y_2.png","2","Y_3.png","3","Y_4.png","4","confidence.png","1","guessing.png","2","respond_yes.png","3","respond_no.png","4","Word 2 of 12","1","Image 1 of 3","1","line","6"
"A3KF6O09H04SP7","practiceBlock","centre_mouse","6","844","reveal","Picture1.jpg","N_1.png","1","N_2.png","2","N_3.png","3","N_4.png","4","Y_1.png","1","Y_2.png","2","Y_3.png","3","Y_4.png","4","confidence.png","1","guessing.png","2","respond_yes.png","3","respond_no.png","4","Word 2 of 12","1","Image 1 of 3","1","reveal.png","5"
"A3KF6O09H04SP7","practiceBlock","practice_present_trial","7","3497","yes_3","Picture1.jpg","N_1.png","1","N_2.png","2","N_3.png","3","N_4.png","4","Y_1.png","1","Y_2.png","2","Y_3.png","3","Y_4.png","4","confidence.png","1","guessing.png","2","respond_yes.png","3","respond_no.png","4","Word 3 of 12","1","Image 1 of 3","1","red","3"
"A3KF6O09H04SP7","practiceBlock","centre_mouse","8","1028","reveal","Picture1.jpg","N_1.png","1","N_2.png","2","N_3.png","3","N_4.png","4","Y_1.png","1","Y_2.png","2","Y_3.png","3","Y_4.png","4","confidence.png","1","guessing.png","2","respond_yes.png","3","respond_no.png","4","Word 3 of 12","1","Image 1 of 3","1","reveal.png","5"
"A3KF6O09H04SP7","practiceBlock","practice_present_trial","9","992","yes_4","Picture1.jpg","N_1.png","1","N_2.png","2","N_3.png","3","N_4.png","4","Y_1.png","1","Y_2.png","2","Y_3.png","3","Y_4.png","4","confidence.png","1","guessing.png","2","respond_yes.png","3","respond_no.png","4","Word 4 of 12","1","Image 1 of 3","1","heart","1"
"A3KF6O09H04SP7","practiceBlock","centre_mouse","10","664","reveal","Picture1.jpg","N_1.png","1","N_2.png","2","N_3.png","3","N_4.png","4","Y_1.png","1","Y_2.png","2","Y_3.png","3","Y_4.png","4","confidence.png","1","guessing.png","2","respond_yes.png","3","respond_no.png","4","Word 4 of 12","1","Image 1 of 3","1","reveal.png","5"
"A3KF6O09H04SP7","practiceBlock","practice_present_trial","11","2101","yes_2","Picture1.jpg","N_1.png","1","N_2.png","2","N_3.png","3","N_4.png","4","Y_1.png","1","Y_2.png","2","Y_3.png","3","Y_4.png","4","confidence.png","1","guessing.png","2","respond_yes.png","3","respond_no.png","4","Word 5 of 12","1","Image 1 of 3","1","outline","5"
"A3KF6O09H04SP7","practiceBlock","centre_mouse","12","576","reveal","Picture1.jpg","N_1.png","1","N_2.png","2","N_3.png","3","N_4.png","4","Y_1.png","1","Y_2.png","2","Y_3.png","3","Y_4.png","4","confidence.png","1","guessing.png","2","respond_yes.png","3","respond_no.png","4","Word 5 of 12","1","Image 1 of 3","1","reveal.png","5"
"A3KF6O09H04SP7","practiceBlock","practice_absent_trial","13","1582","no_4","Picture1.jpg","N_1.png","1","N_2.png","2","N_3.png","3","N_4.png","4","Y_1.png","1","Y_2.png","2","Y_3.png","3","Y_4.png","4","confidence.png","1","guessing.png","2","respond_yes.png","3","respond_no.png","4","Word 6 of 12","1","Image 1 of 3","1","dome","5"
"A3KF6O09H04SP7","practiceBlock","centre_mouse","14","582","reveal","Picture1.jpg","N_1.png","1","N_2.png","2","N_3.png","3","N_4.png","4","Y_1.png","1","Y_2.png","2","Y_3.png","3","Y_4.png","4","confidence.png","1","guessing.png","2","respond_yes.png","3","respond_no.png","4","Word 6 of 12","1","Image 1 of 3","1","reveal.png","5"
"A3KF6O09H04SP7","practiceBlock","practice_present_trial","15","2549","no_2","Picture1.jpg","N_1.png","1","N_2.png","2","N_3.png","3","N_4.png","4","Y_1.png","1","Y_2.png","2","Y_3.png","3","Y_4.png","4","confidence.png","1","guessing.png","2","respond_yes.png","3","respond_no.png","4","Word 7 of 12","1","Image 1 of 3","1","color","6"
"A3KF6O09H04SP7","practiceBlock","centre_mouse","16","638","reveal","Picture1.jpg","N_1.png","1","N_2.png","2","N_3.png","3","N_4.png","4","Y_1.png","1","Y_2.png","2","Y_3.png","3","Y_4.png","4","confidence.png","1","guessing.png","2","respond_yes.png","3","respond_no.png","4","Word 7 of 12","1","Image 1 of 3","1","reveal.png","5"
"A3KF6O09H04SP7","practiceBlock","practice_absent_trial","17","1906","no_4","Picture1.jpg","N_1.png","1","N_2.png","2","N_3.png","3","N_4.png","4","Y_1.png","1","Y_2.png","2","Y_3.png","3","Y_4.png","4","confidence.png","1","guessing.png","2","respond_yes.png","3","respond_no.png","4","Word 8 of 12","1","Image 1 of 3","1","day","4"
"A3KF6O09H04SP7","practiceBlock","centre_mouse","18","2255","reveal","Picture1.jpg","N_1.png","1","N_2.png","2","N_3.png","3","N_4.png","4","Y_1.png","1","Y_2.png","2","Y_3.png","3","Y_4.png","4","confidence.png","1","guessing.png","2","respond_yes.png","3","respond_no.png","4","Word 8 of 12","1","Image 1 of 3","1","reveal.png","5"
"A3KF6O09H04SP7","practiceBlock","practice_absent_trial","19","1043","no_4","Picture1.jpg","N_1.png","1","N_2.png","2","N_3.png","3","N_4.png","4","Y_1.png","1","Y_2.png","2","Y_3.png","3","Y_4.png","4","confidence.png","1","guessing.png","2","respond_yes.png","3","respond_no.png","4","Word 9 of 12","1","Image 1 of 3","1","crow","2"
"A3KF6O09H04SP7","practiceBlock","centre_mouse","20","648","reveal","Picture1.jpg","N_1.png","1","N_2.png","2","N_3.png","3","N_4.png","4","Y_1.png","1","Y_2.png","2","Y_3.png","3","Y_4.png","4","confidence.png","1","guessing.png","2","respond_yes.png","3","respond_no.png","4","Word 9 of 12","1","Image 1 of 3","1","reveal.png","5"
"A3KF6O09H04SP7","practiceBlock","practice_present_trial","21","1275","yes_3","Picture1.jpg","N_1.png","1","N_2.png","2","N_3.png","3","N_4.png","4","Y_1.png","1","Y_2.png","2","Y_3.png","3","Y_4.png","4","confidence.png","1","guessing.png","2","respond_yes.png","3","respond_no.png","4","Word 10 of 12","1","Image 1 of 3","1","love","2"
"A3KF6O09H04SP7","practiceBlock","centre_mouse","22","616","reveal","Picture1.jpg","N_1.png","1","N_2.png","2","N_3.png","3","N_4.png","4","Y_1.png","1","Y_2.png","2","Y_3.png","3","Y_4.png","4","confidence.png","1","guessing.png","2","respond_yes.png","3","respond_no.png","4","Word 10 of 12","1","Image 1 of 3","1","reveal.png","5"
"A3KF6O09H04SP7","practiceBlock","practice_present_trial","23","2285","no_1","Picture1.jpg","N_1.png","1","N_2.png","2","N_3.png","3","N_4.png","4","Y_1.png","1","Y_2.png","2","Y_3.png","3","Y_4.png","4","confidence.png","1","guessing.png","2","respond_yes.png","3","respond_no.png","4","Word 11 of 12","1","Image 1 of 3","1","black","4"
"A3KF6O09H04SP7","practiceBlock","centre_mouse","24","673","reveal","Picture1.jpg","N_1.png","1","N_2.png","2","N_3.png","3","N_4.png","4","Y_1.png","1","Y_2.png","2","Y_3.png","3","Y_4.png","4","confidence.png","1","guessing.png","2","respond_yes.png","3","respond_no.png","4","Word 11 of 12","1","Image 1 of 3","1","reveal.png","5"
"A3KF6O09H04SP7","practiceBlock","practice_absent_trial","25","1893","no_4","Picture1.jpg","N_1.png","1","N_2.png","2","N_3.png","3","N_4.png","4","Y_1.png","1","Y_2.png","2","Y_3.png","3","Y_4.png","4","confidence.png","1","guessing.png","2","respond_yes.png","3","respond_no.png","4","Word 12 of 12","1","Image 1 of 3","1","wall","3"
"A3KF6O09H04SP7","practiceBlock","centre_mouse","26","3023","reveal","Picture1.jpg","N_1.png","1","N_2.png","2","N_3.png","3","N_4.png","4","Y_1.png","1","Y_2.png","2","Y_3.png","3","Y_4.png","4","confidence.png","1","guessing.png","2","respond_yes.png","3","respond_no.png","4","Word 12 of 12","1","Image 1 of 3","1","reveal.png","5"
"A3KF6O09H04SP7","practiceBlock","catch_present_trial","27","3148","yes_1","Picture1.jpg","N_1.png","1","N_2.png","2","N_3.png","3","N_4.png","4","Y_1.png","1","Y_2.png","2","Y_3.png","3","Y_4.png","4","confidence.png","1","guessing.png","2","respond_yes.png","3","respond_no.png","4","Word 12 of 12","1","Image 1 of 3","1","PRESS: Yes 1","1"
"A3KF6O09H04SP7","practiceBlock","centre_mouse","28","774","reveal","Picture1.jpg","N_1.png","1","N_2.png","2","N_3.png","3","N_4.png","4","Y_1.png","1","Y_2.png","2","Y_3.png","3","Y_4.png","4","confidence.png","1","guessing.png","2","respond_yes.png","3","respond_no.png","4","Word 12 of 12","1","Image 1 of 3","1","reveal.png","5"
"A3KF6O09H04SP7","practiceBlock","catch_absent_trial","29","2895","no_4","Picture1.jpg","N_1.png","1","N_2.png","2","N_3.png","3","N_4.png","4","Y_1.png","1","Y_2.png","2","Y_3.png","3","Y_4.png","4","confidence.png","1","guessing.png","2","respond_yes.png","3","respond_no.png","4","Word 12 of 12","1","Image 1 of 3","1","PRESS: No 4","4"
"A3KF6O09H04SP7","practiceBlock","centre_mouse","30","2082","reveal","Picture1.jpg","N_1.png","1","N_2.png","2","N_3.png","3","N_4.png","4","Y_1.png","1","Y_2.png","2","Y_3.png","3","Y_4.png","4","confidence.png","1","guessing.png","2","respond_yes.png","3","respond_no.png","4","Word 12 of 12","1","Image 1 of 3","1","reveal.png","5"
"A3KF6O09H04SP7","practiceBlock","practice","1","0","0","Picture1.jpg","+","1","Picture3.jpg","3","mask2.jpg","2","mask1.jpg","1","mask4.jpg","4","mask1.jpg","1","mask2.jpg","2","0","0","0","0","0","0","0","0","0","0","0","0","0","0","0","0"
"A3KF6O09H04SP7","practiceBlock","centre_mouse","2","4745","Ctrl+'Q'","Picture1.jpg","N_1.png","1","N_2.png","2","N_3.png","3","N_4.png","4","Y_1.png","1","Y_2.png","2","Y_3.png","3","Y_4.png","4","confidence.png","1","guessing.png","2","respond_yes.png","3","respond_no.png","4","Word 0 of 12","1","Image 2 of 3","1","reveal.png","5"
"ACM1CEGHXTKZP","practiceBlock","practice","1","0","0","Picture1.jpg","+","1","Picture3.jpg","3","mask5.jpg","5","mask1.jpg","1","mask1.jpg","1","mask2.jpg","2","mask3.jpg","3","0","0","0","0","0","0","0","0","0","0","0","0","0","0","0","0"
"ACM1CEGHXTKZP","practiceBlock","centre_mouse","2","3816","reveal","Picture1.jpg","N_1.png","1","N_2.png","2","N_3.png","3","N_4.png","4","Y_1.png","1","Y_2.png","2","Y_3.png","3","Y_4.png","4","confidence.png","1","guessing.png","2","respond_yes.png","3","respond_no.png","4","Word 0 of 12","1","Image 1 of 3","1","reveal.png","5"
"ACM1CEGHXTKZP","practiceBlock","practice_absent_trial","3","8488","yes_1","Picture3.jpg","N_1.png","1","N_2.png","2","N_3.png","3","N_4.png","4","Y_1.png","1","Y_2.png","2","Y_3.png","3","Y_4.png","4","confidence.png","1","guessing.png","2","respond_yes.png","3","respond_no.png","4","Word 1 of 12","1","Image 1 of 3","1","stand","5"
"ACM1CEGHXTKZP","practiceBlock","centre_mouse","4","1448","reveal","Picture3.jpg","N_1.png","1","N_2.png","2","N_3.png","3","N_4.png","4","Y_1.png","1","Y_2.png","2","Y_3.png","3","Y_4.png","4","confidence.png","1","guessing.png","2","respond_yes.png","3","respond_no.png","4","Word 1 of 12","1","Image 1 of 3","1","reveal.png","5"
"ACM1CEGHXTKZP","practiceBlock","practice_absent_trial","5","2277","no_1","Picture3.jpg","N_1.png","1","N_2.png","2","N_3.png","3","N_4.png","4","Y_1.png","1","Y_2.png","2","Y_3.png","3","Y_4.png","4","confidence.png","1","guessing.png","2","respond_yes.png","3","respond_no.png","4","Word 2 of 12","1","Image 1 of 3","1","coat","3"
"ACM1CEGHXTKZP","practiceBlock","centre_mouse","6","990","reveal","Picture3.jpg","N_1.png","1","N_2.png","2","N_3.png","3","N_4.png","4","Y_1.png","1","Y_2.png","2","Y_3.png","3","Y_4.png","4","confidence.png","1","guessing.png","2","respond_yes.png","3","respond_no.png","4","Word 2 of 12","1","Image 1 of 3","1","reveal.png","5"
"ACM1CEGHXTKZP","practiceBlock","practice_absent_trial","7","2080","no_2","Picture3.jpg","N_1.png","1","N_2.png","2","N_3.png","3","N_4.png","4","Y_1.png","1","Y_2.png","2","Y_3.png","3","Y_4.png","4","confidence.png","1","guessing.png","2","respond_yes.png","3","respond_no.png","4","Word 3 of 12","1","Image 1 of 3","1","zoomed-in","1"
"ACM1CEGHXTKZP","practiceBlock","centre_mouse","8","719","reveal","Picture3.jpg","N_1.png","1","N_2.png","2","N_3.png","3","N_4.png","4","Y_1.png","1","Y_2.png","2","Y_3.png","3","Y_4.png","4","confidence.png","1","guessing.png","2","respond_yes.png","3","respond_no.png","4","Word 3 of 12","1","Image 1 of 3","1","reveal.png","5"
"ACM1CEGHXTKZP","practiceBlock","practice_present_trial","9","1421","yes_4","Picture3.jpg","N_1.png","1","N_2.png","2","N_3.png","3","N_4.png","4","Y_1.png","1","Y_2.png","2","Y_3.png","3","Y_4.png","4","confidence.png","1","guessing.png","2","respond_yes.png","3","respond_no.png","4","Word 4 of 12","1","Image 1 of 3","1","sky","6"
"ACM1CEGHXTKZP","practiceBlock","centre_mouse","10","357","reveal","Picture3.jpg","N_1.png","1","N_2.png","2","N_3.png","3","N_4.png","4","Y_1.png","1","Y_2.png","2","Y_3.png","3","Y_4.png","4","confidence.png","1","guessing.png","2","respond_yes.png","3","respond_no.png","4","Word 4 of 12","1","Image 1 of 3","1","reveal.png","5"
"ACM1CEGHXTKZP","practiceBlock","practice_present_trial","11","621","yes_4","Picture3.jpg","N_1.png","1","N_2.png","2","N_3.png","3","N_4.png","4","Y_1.png","1","Y_2.png","2","Y_3.png","3","Y_4.png","4","confidence.png","1","guessing.png","2","respond_yes.png","3","respond_no.png","4","Word 5 of 12","1","Image 1 of 3","1","cloud","3"
"ACM1CEGHXTKZP","practiceBlock","centre_mouse","12","612","reveal","Picture3.jpg","N_1.png","1","N_2.png","2","N_3.png","3","N_4.png","4","Y_1.png","1","Y_2.png","2","Y_3.png","3","Y_4.png","4","confidence.png","1","guessing.png","2","respond_yes.png","3","respond_no.png","4","Word 5 of 12","1","Image 1 of 3","1","reveal.png","5"
"ACM1CEGHXTKZP","practiceBlock","practice_present_trial","13","565","yes_4","Picture3.jpg","N_1.png","1","N_2.png","2","N_3.png","3","N_4.png","4","Y_1.png","1","Y_2.png","2","Y_3.png","3","Y_4.png","4","confidence.png","1","guessing.png","2","respond_yes.png","3","respond_no.png","4","Word 6 of 12","1","Image 1 of 3","1","sun","2"
"ACM1CEGHXTKZP","practiceBlock","centre_mouse","14","559","reveal","Picture3.jpg","N_1.png","1","N_2.png","2","N_3.png","3","N_4.png","4","Y_1.png","1","Y_2.png","2","Y_3.png","3","Y_4.png","4","confidence.png","1","guessing.png","2","respond_yes.png","3","respond_no.png","4","Word 6 of 12","1","Image 1 of 3","1","reveal.png","5"
"ACM1CEGHXTKZP","practiceBlock","practice_present_trial","15","1600","yes_4","Picture3.jpg","N_1.png","1","N_2.png","2","N_3.png","3","N_4.png","4","Y_1.png","1","Y_2.png","2","Y_3.png","3","Y_4.png","4","confidence.png","1","guessing.png","2","respond_yes.png","3","respond_no.png","4","Word 7 of 12","1","Image 1 of 3","1","blue","5"
"ACM1CEGHXTKZP","practiceBlock","centre_mouse","16","551","reveal","Picture3.jpg","N_1.png","1","N_2.png","2","N_3.png","3","N_4.png","4","Y_1.png","1","Y_2.png","2","Y_3.png","3","Y_4.png","4","confidence.png","1","guessing.png","2","respond_yes.png","3","respond_no.png","4","Word 7 of 12","1","Image 1 of 3","1","reveal.png","5"
"ACM1CEGHXTKZP","practiceBlock","practice_present_trial","17","1066","yes_4","Picture3.jpg","N_1.png","1","N_2.png","2","N_3.png","3","N_4.png","4","Y_1.png","1","Y_2.png","2","Y_3.png","3","Y_4.png","4","confidence.png","1","guessing.png","2","respond_yes.png","3","respond_no.png","4","Word 8 of 12","1","Image 1 of 3","1","mountain","1"
"ACM1CEGHXTKZP","practiceBlock","centre_mouse","18","608","reveal","Picture3.jpg","N_1.png","1","N_2.png","2","N_3.png","3","N_4.png","4","Y_1.png","1","Y_2.png","2","Y_3.png","3","Y_4.png","4","confidence.png","1","guessing.png","2","respond_yes.png","3","respond_no.png","4","Word 8 of 12","1","Image 1 of 3","1","reveal.png","5"
"ACM1CEGHXTKZP","practiceBlock","practice_present_trial","19","1250","yes_4","Picture3.jpg","N_1.png","1","N_2.png","2","N_3.png","3","N_4.png","4","Y_1.png","1","Y_2.png","2","Y_3.png","3","Y_4.png","4","confidence.png","1","guessing.png","2","respond_yes.png","3","respond_no.png","4","Word 9 of 12","1","Image 1 of 3","1","landscape","4"
"ACM1CEGHXTKZP","practiceBlock","centre_mouse","20","317","reveal","Picture3.jpg","N_1.png","1","N_2.png","2","N_3.png","3","N_4.png","4","Y_1.png","1","Y_2.png","2","Y_3.png","3","Y_4.png","4","confidence.png","1","guessing.png","2","respond_yes.png","3","respond_no.png","4","Word 9 of 12","1","Image 1 of 3","1","reveal.png","5"
"ACM1CEGHXTKZP","practiceBlock","practice_absent_trial","21","1021","no_2","Picture3.jpg","N_1.png","1","N_2.png","2","N_3.png","3","N_4.png","4","Y_1.png","1","Y_2.png","2","Y_3.png","3","Y_4.png","4","confidence.png","1","guessing.png","2","respond_yes.png","3","respond_no.png","4","Word 10 of 12","1","Image 1 of 3","1","horse","2"
"ACM1CEGHXTKZP","practiceBlock","centre_mouse","22","636","reveal","Picture3.jpg","N_1.png","1","N_2.png","2","N_3.png","3","N_4.png","4","Y_1.png","1","Y_2.png","2","Y_3.png","3","Y_4.png","4","confidence.png","1","guessing.png","2","respond_yes.png","3","respond_no.png","4","Word 10 of 12","1","Image 1 of 3","1","reveal.png","5"
"ACM1CEGHXTKZP","practiceBlock","practice_absent_trial","23","1029","no_1","Picture3.jpg","N_1.png","1","N_2.png","2","N_3.png","3","N_4.png","4","Y_1.png","1","Y_2.png","2","Y_3.png","3","Y_4.png","4","confidence.png","1","guessing.png","2","respond_yes.png","3","respond_no.png","4","Word 11 of 12","1","Image 1 of 3","1","blue-hat","6"
"ACM1CEGHXTKZP","practiceBlock","centre_mouse","24","387","reveal","Picture3.jpg","N_1.png","1","N_2.png","2","N_3.png","3","N_4.png","4","Y_1.png","1","Y_2.png","2","Y_3.png","3","Y_4.png","4","confidence.png","1","guessing.png","2","respond_yes.png","3","respond_no.png","4","Word 11 of 12","1","Image 1 of 3","1","reveal.png","5"
"ACM1CEGHXTKZP","practiceBlock","practice_absent_trial","25","1992","no_2","Picture3.jpg","N_1.png","1","N_2.png","2","N_3.png","3","N_4.png","4","Y_1.png","1","Y_2.png","2","Y_3.png","3","Y_4.png","4","confidence.png","1","guessing.png","2","respond_yes.png","3","respond_no.png","4","Word 12 of 12","1","Image 1 of 3","1","old","4"
"ACM1CEGHXTKZP","practiceBlock","centre_mouse","26","559","reveal","Picture3.jpg","N_1.png","1","N_2.png","2","N_3.png","3","N_4.png","4","Y_1.png","1","Y_2.png","2","Y_3.png","3","Y_4.png","4","confidence.png","1","guessing.png","2","respond_yes.png","3","respond_no.png","4","Word 12 of 12","1","Image 1 of 3","1","reveal.png","5"
"ACM1CEGHXTKZP","practiceBlock","catch_absent_trial","27","2457","no_2","Picture3.jpg","N_1.png","1","N_2.png","2","N_3.png","3","N_4.png","4","Y_1.png","1","Y_2.png","2","Y_3.png","3","Y_4.png","4","confidence.png","1","guessing.png","2","respond_yes.png","3","respond_no.png","4","Word 12 of 12","1","Image 1 of 3","1","PRESS: No 2","2"
"ACM1CEGHXTKZP","practiceBlock","centre_mouse","28","647","reveal","Picture3.jpg","N_1.png","1","N_2.png","2","N_3.png","3","N_4.png","4","Y_1.png","1","Y_2.png","2","Y_3.png","3","Y_4.png","4","confidence.png","1","guessing.png","2","respond_yes.png","3","respond_no.png","4","Word 12 of 12","1","Image 1 of 3","1","reveal.png","5"
"ACM1CEGHXTKZP","practiceBlock","catch_present_trial","29","1028","no_3","Picture3.jpg","N_1.png","1","N_2.png","2","N_3.png","3","N_4.png","4","Y_1.png","1","Y_2.png","2","Y_3.png","3","Y_4.png","4","confidence.png","1","guessing.png","2","respond_yes.png","3","respond_no.png","4","Word 12 of 12","1","Image 1 of 3","1","PRESS: Yes 3","3"
"ACM1CEGHXTKZP","practiceBlock","centre_mouse","30","383","reveal","Picture3.jpg","N_1.png","1","N_2.png","2","N_3.png","3","N_4.png","4","Y_1.png","1","Y_2.png","2","Y_3.png","3","Y_4.png","4","confidence.png","1","guessing.png","2","respond_yes.png","3","respond_no.png","4","Word 12 of 12","1","Image 1 of 3","1","reveal.png","5"
"ACM1CEGHXTKZP","practiceBlock","practice","1","0","0","Picture3.jpg","+","1","Picture1.jpg","1","mask3.jpg","3","mask2.jpg","2","mask4.jpg","4","mask1.jpg","1","mask4.jpg","4","0","0","0","0","0","0","0","0","0","0","0","0","0","0","0","0"
"ACM1CEGHXTKZP","practiceBlock","centre_mouse","2","887","reveal","Picture3.jpg","N_1.png","1","N_2.png","2","N_3.png","3","N_4.png","4","Y_1.png","1","Y_2.png","2","Y_3.png","3","Y_4.png","4","confidence.png","1","guessing.png","2","respond_yes.png","3","respond_no.png","4","Word 0 of 12","1","Image 2 of 3","1","reveal.png","5"
"ACM1CEGHXTKZP","practiceBlock","practice_present_trial","3","1362","no_4","Picture1.jpg","N_1.png","1","N_2.png","2","N_3.png","3","N_4.png","4","Y_1.png","1","Y_2.png","2","Y_3.png","3","Y_4.png","4","confidence.png","1","guessing.png","2","respond_yes.png","3","respond_no.png","4","Word 1 of 12","1","Image 2 of 3","1","red","3"
"ACM1CEGHXTKZP","practiceBlock","centre_mouse","4","422","reveal","Picture1.jpg","N_1.png","1","N_2.png","2","N_3.png","3","N_4.png","4","Y_1.png","1","Y_2.png","2","Y_3.png","3","Y_4.png","4","confidence.png","1","guessing.png","2","respond_yes.png","3","respond_no.png","4","Word 1 of 12","1","Image 2 of 3","1","reveal.png","5"
"ACM1CEGHXTKZP","practiceBlock","practice_present_trial","5","1020","yes_4","Picture1.jpg","N_1.png","1","N_2.png","2","N_3.png","3","N_4.png","4","Y_1.png","1","Y_2.png","2","Y_3.png","3","Y_4.png","4","confidence.png","1","guessing.png","2","respond_yes.png","3","respond_no.png","4","Word 2 of 12","1","Image 2 of 3","1","heart","1"
"ACM1CEGHXTKZP","practiceBlock","centre_mouse","6","658","reveal","Picture1.jpg","N_1.png","1","N_2.png","2","N_3.png","3","N_4.png","4","Y_1.png","1","Y_2.png","2","Y_3.png","3","Y_4.png","4","confidence.png","1","guessing.png","2","respond_yes.png","3","respond_no.png","4","Word 2 of 12","1","Image 2 of 3","1","reveal.png","5"
"ACM1CEGHXTKZP","practiceBlock","practice_present_trial","7","2205","yes_4","Picture1.jpg","N_1.png","1","N_2.png","2","N_3.png","3","N_4.png","4","Y_1.png","1","Y_2.png","2","Y_3.png","3","Y_4.png","4","confidence.png","1","guessing.png","2","respond_yes.png","3","respond_no.png","4","Word 3 of 12","1","Image 2 of 3","1","color","6"
"ACM1CEGHXTKZP","practiceBlock","centre_mouse","8","548","reveal","Picture1.jpg","N_1.png","1","N_2.png","2","N_3.png","3","N_4.png","4","Y_1.png","1","Y_2.png","2","Y_3.png","3","Y_4.png","4","confidence.png","1","guessing.png","2","respond_yes.png","3","respond_no.png","4","Word 3 of 12","1","Image 2 of 3","1","reveal.png","5"
"ACM1CEGHXTKZP","practiceBlock","practice_absent_trial","9","1267","no_4","Picture1.jpg","N_1.png","1","N_2.png","2","N_3.png","3","N_4.png","4","Y_1.png","1","Y_2.png","2","Y_3.png","3","Y_4.png","4","confidence.png","1","guessing.png","2","respond_yes.png","3","respond_no.png","4","Word 4 of 12","1","Image 2 of 3","1","line","6"
"ACM1CEGHXTKZP","practiceBlock","centre_mouse","10","516","reveal","Picture1.jpg","N_1.png","1","N_2.png","2","N_3.png","3","N_4.png","4","Y_1.png","1","Y_2.png","2","Y_3.png","3","Y_4.png","4","confidence.png","1","guessing.png","2","respond_yes.png","3","respond_no.png","4","Word 4 of 12","1","Image 2 of 3","1","reveal.png","5"
"ACM1CEGHXTKZP","practiceBlock","practice_present_trial","11","724","no_4","Picture1.jpg","N_1.png","1","N_2.png","2","N_3.png","3","N_4.png","4","Y_1.png","1","Y_2.png","2","Y_3.png","3","Y_4.png","4","confidence.png","1","guessing.png","2","respond_yes.png","3","respond_no.png","4","Word 5 of 12","1","Image 2 of 3","1","black","4"
"ACM1CEGHXTKZP","practiceBlock","centre_mouse","12","349","reveal","Picture1.jpg","N_1.png","1","N_2.png","2","N_3.png","3","N_4.png","4","Y_1.png","1","Y_2.png","2","Y_3.png","3","Y_4.png","4","confidence.png","1","guessing.png","2","respond_yes.png","3","respond_no.png","4","Word 5 of 12","1","Image 2 of 3","1","reveal.png","5"
"ACM1CEGHXTKZP","practiceBlock","practice_absent_trial","13","611","no_4","Picture1.jpg","N_1.png","1","N_2.png","2","N_3.png","3","N_4.png","4","Y_1.png","1","Y_2.png","2","Y_3.png","3","Y_4.png","4","confidence.png","1","guessing.png","2","respond_yes.png","3","respond_no.png","4","Word 6 of 12","1","Image 2 of 3","1","crow","2"
"ACM1CEGHXTKZP","practiceBlock","centre_mouse","14","285","reveal","Picture1.jpg","N_1.png","1","N_2.png","2","N_3.png","3","N_4.png","4","Y_1.png","1","Y_2.png","2","Y_3.png","3","Y_4.png","4","confidence.png","1","guessing.png","2","respond_yes.png","3","respond_no.png","4","Word 6 of 12","1","Image 2 of 3","1","reveal.png","5"
"ACM1CEGHXTKZP","practiceBlock","practice_present_trial","15","2323","yes_4","Picture1.jpg","N_1.png","1","N_2.png","2","N_3.png","3","N_4.png","4","Y_1.png","1","Y_2.png","2","Y_3.png","3","Y_4.png","4","confidence.png","1","guessing.png","2","respond_yes.png","3","respond_no.png","4","Word 7 of 12","1","Image 2 of 3","1","love","2"
"ACM1CEGHXTKZP","practiceBlock","centre_mouse","16","335","reveal","Picture1.jpg","N_1.png","1","N_2.png","2","N_3.png","3","N_4.png","4","Y_1.png","1","Y_2.png","2","Y_3.png","3","Y_4.png","4","confidence.png","1","guessing.png","2","respond_yes.png","3","respond_no.png","4","Word 7 of 12","1","Image 2 of 3","1","reveal.png","5"
"ACM1CEGHXTKZP","practiceBlock","practice_absent_trial","17","542","no_4","Picture1.jpg","N_1.png","1","N_2.png","2","N_3.png","3","N_4.png","4","Y_1.png","1","Y_2.png","2","Y_3.png","3","Y_4.png","4","confidence.png","1","guessing.png","2","respond_yes.png","3","respond_no.png","4","Word 8 of 12","1","Image 2 of 3","1","wall","3"
"ACM1CEGHXTKZP","practiceBlock","centre_mouse","18","294","reveal","Picture1.jpg","N_1.png","1","N_2.png","2","N_3.png","3","N_4.png","4","Y_1.png","1","Y_2.png","2","Y_3.png","3","Y_4.png","4","confidence.png","1","guessing.png","2","respond_yes.png","3","respond_no.png","4","Word 8 of 12","1","Image 2 of 3","1","reveal.png","5"
"ACM1CEGHXTKZP","practiceBlock","practice_absent_trial","19","602","no_4","Picture1.jpg","N_1.png","1","N_2.png","2","N_3.png","3","N_4.png","4","Y_1.png","1","Y_2.png","2","Y_3.png","3","Y_4.png","4","confidence.png","1","guessing.png","2","respond_yes.png","3","respond_no.png","4","Word 9 of 12","1","Image 2 of 3","1","blanket","1"
"ACM1CEGHXTKZP","practiceBlock","centre_mouse","20","466","reveal","Picture1.jpg","N_1.png","1","N_2.png","2","N_3.png","3","N_4.png","4","Y_1.png","1","Y_2.png","2","Y_3.png","3","Y_4.png","4","confidence.png","1","guessing.png","2","respond_yes.png","3","respond_no.png","4","Word 9 of 12","1","Image 2 of 3","1","reveal.png","5"
"ACM1CEGHXTKZP","practiceBlock","practice_present_trial","21","493","no_4","Picture1.jpg","N_1.png","1","N_2.png","2","N_3.png","3","N_4.png","4","Y_1.png","1","Y_2.png","2","Y_3.png","3","Y_4.png","4","confidence.png","1","guessing.png","2","respond_yes.png","3","respond_no.png","4","Word 10 of 12","1","Image 2 of 3","1","outline","5"
"ACM1CEGHXTKZP","practiceBlock","centre_mouse","22","285","reveal","Picture1.jpg","N_1.png","1","N_2.png","2","N_3.png","3","N_4.png","4","Y_1.png","1","Y_2.png","2","Y_3.png","3","Y_4.png","4","confidence.png","1","guessing.png","2","respond_yes.png","3","respond_no.png","4","Word 10 of 12","1","Image 2 of 3","1","reveal.png","5"
"ACM1CEGHXTKZP","practiceBlock","practice_absent_trial","23","617","no_4","Picture1.jpg","N_1.png","1","N_2.png","2","N_3.png","3","N_4.png","4","Y_1.png","1","Y_2.png","2","Y_3.png","3","Y_4.png","4","confidence.png","1","guessing.png","2","respond_yes.png","3","respond_no.png","4","Word 11 of 12","1","Image 2 of 3","1","day","4"
"ACM1CEGHXTKZP","practiceBlock","centre_mouse","24","296","reveal","Picture1.jpg","N_1.png","1","N_2.png","2","N_3.png","3","N_4.png","4","Y_1.png","1","Y_2.png","2","Y_3.png","3","Y_4.png","4","confidence.png","1","guessing.png","2","respond_yes.png","3","respond_no.png","4","Word 11 of 12","1","Image 2 of 3","1","reveal.png","5"
"ACM1CEGHXTKZP","practiceBlock","practice_absent_trial","25","591","no_4","Picture1.jpg","N_1.png","1","N_2.png","2","N_3.png","3","N_4.png","4","Y_1.png","1","Y_2.png","2","Y_3.png","3","Y_4.png","4","confidence.png","1","guessing.png","2","respond_yes.png","3","respond_no.png","4","Word 12 of 12","1","Image 2 of 3","1","dome","5"
"ACM1CEGHXTKZP","practiceBlock","centre_mouse","26","518","reveal","Picture1.jpg","N_1.png","1","N_2.png","2","N_3.png","3","N_4.png","4","Y_1.png","1","Y_2.png","2","Y_3.png","3","Y_4.png","4","confidence.png","1","guessing.png","2","respond_yes.png","3","respond_no.png","4","Word 12 of 12","1","Image 2 of 3","1","reveal.png","5"
"ACM1CEGHXTKZP","practiceBlock","catch_absent_trial","27","1116","yes_1","Picture1.jpg","N_1.png","1","N_2.png","2","N_3.png","3","N_4.png","4","Y_1.png","1","Y_2.png","2","Y_3.png","3","Y_4.png","4","confidence.png","1","guessing.png","2","respond_yes.png","3","respond_no.png","4","Word 12 of 12","1","Image 2 of 3","1","PRESS: No 1","1"
"ACM1CEGHXTKZP","practiceBlock","centre_mouse","28","535","reveal","Picture1.jpg","N_1.png","1","N_2.png","2","N_3.png","3","N_4.png","4","Y_1.png","1","Y_2.png","2","Y_3.png","3","Y_4.png","4","confidence.png","1","guessing.png","2","respond_yes.png","3","respond_no.png","4","Word 12 of 12","1","Image 2 of 3","1","reveal.png","5"
"ACM1CEGHXTKZP","practiceBlock","catch_present_trial","29","487","yes_2","Picture1.jpg","N_1.png","1","N_2.png","2","N_3.png","3","N_4.png","4","Y_1.png","1","Y_2.png","2","Y_3.png","3","Y_4.png","4","confidence.png","1","guessing.png","2","respond_yes.png","3","respond_no.png","4","Word 12 of 12","1","Image 2 of 3","1","PRESS: Yes 2","2"
"ACM1CEGHXTKZP","practiceBlock","centre_mouse","30","295","reveal","Picture1.jpg","N_1.png","1","N_2.png","2","N_3.png","3","N_4.png","4","Y_1.png","1","Y_2.png","2","Y_3.png","3","Y_4.png","4","confidence.png","1","guessing.png","2","respond_yes.png","3","respond_no.png","4","Word 12 of 12","1","Image 2 of 3","1","reveal.png","5"
"ACM1CEGHXTKZP","practiceBlock","practice","1","0","0","Picture1.jpg","+","1","Picture2.jpg","2","mask1.jpg","1","mask4.jpg","4","mask2.jpg","2","mask4.jpg","4","mask5.jpg","5","0","0","0","0","0","0","0","0","0","0","0","0","0","0","0","0"
"ACM1CEGHXTKZP","practiceBlock","centre_mouse","2","896","reveal","Picture1.jpg","N_1.png","1","N_2.png","2","N_3.png","3","N_4.png","4","Y_1.png","1","Y_2.png","2","Y_3.png","3","Y_4.png","4","confidence.png","1","guessing.png","2","respond_yes.png","3","respond_no.png","4","Word 0 of 12","1","Image 3 of 3","1","reveal.png","5"
"ACM1CEGHXTKZP","practiceBlock","practice_absent_trial","3","1243","no_4","Picture2.jpg","N_1.png","1","N_2.png","2","N_3.png","3","N_4.png","4","Y_1.png","1","Y_2.png","2","Y_3.png","3","Y_4.png","4","confidence.png","1","guessing.png","2","respond_yes.png","3","respond_no.png","4","Word 1 of 12","1","Image 3 of 3","1","walk","1"
"ACM1CEGHXTKZP","practiceBlock","centre_mouse","4","289","reveal","Picture2.jpg","N_1.png","1","N_2.png","2","N_3.png","3","N_4.png","4","Y_1.png","1","Y_2.png","2","Y_3.png","3","Y_4.png","4","confidence.png","1","guessing.png","2","respond_yes.png","3","respond_no.png","4","Word 1 of 12","1","Image 3 of 3","1","reveal.png","5"
"ACM1CEGHXTKZP","practiceBlock","practice_absent_trial","5","620","no_4","Picture2.jpg","N_1.png","1","N_2.png","2","N_3.png","3","N_4.png","4","Y_1.png","1","Y_2.png","2","Y_3.png","3","Y_4.png","4","confidence.png","1","guessing.png","2","respond_yes.png","3","respond_no.png","4","Word 2 of 12","1","Image 3 of 3","1","man","6"
"ACM1CEGHXTKZP","practiceBlock","centre_mouse","6","466","reveal","Picture2.jpg","N_1.png","1","N_2.png","2","N_3.png","3","N_4.png","4","Y_1.png","1","Y_2.png","2","Y_3.png","3","Y_4.png","4","confidence.png","1","guessing.png","2","respond_yes.png","3","respond_no.png","4","Word 2 of 12","1","Image 3 of 3","1","reveal.png","5"
"ACM1CEGHXTKZP","practiceBlock","practice_absent_trial","7","1072","yes_4","Picture2.jpg","N_1.png","1","N_2.png","2","N_3.png","3","N_4.png","4","Y_1.png","1","Y_2.png","2","Y_3.png","3","Y_4.png","4","confidence.png","1","guessing.png","2","respond_yes.png","3","respond_no.png","4","Word 3 of 12","1","Image 3 of 3","1","beauty","2"
"ACM1CEGHXTKZP","practiceBlock","centre_mouse","8","551","reveal","Picture2.jpg","N_1.png","1","N_2.png","2","N_3.png","3","N_4.png","4","Y_1.png","1","Y_2.png","2","Y_3.png","3","Y_4.png","4","confidence.png","1","guessing.png","2","respond_yes.png","3","respond_no.png","4","Word 3 of 12","1","Image 3 of 3","1","reveal.png","5"
"ACM1CEGHXTKZP","practiceBlock","practice_present_trial","9","740","yes_4","Picture2.jpg","N_1.png","1","N_2.png","2","N_3.png","3","N_4.png","4","Y_1.png","1","Y_2.png","2","Y_3.png","3","Y_4.png","4","confidence.png","1","guessing.png","2","respond_yes.png","3","respond_no.png","4","Word 4 of 12","1","Image 3 of 3","1","yellow","2"
"ACM1CEGHXTKZP","practiceBlock","centre_mouse","10","293","reveal","Picture2.jpg","N_1.png","1","N_2.png","2","N_3.png","3","N_4.png","4","Y_1.png","1","Y_2.png","2","Y_3.png","3","Y_4.png","4","confidence.png","1","guessing.png","2","respond_yes.png","3","respond_no.png","4","Word 4 of 12","1","Image 3 of 3","1","reveal.png","5"
"ACM1CEGHXTKZP","practiceBlock","practice_present_trial","11","553","yes_4","Picture2.jpg","N_1.png","1","N_2.png","2","N_3.png","3","N_4.png","4","Y_1.png","1","Y_2.png","2","Y_3.png","3","Y_4.png","4","confidence.png","1","guessing.png","2","respond_yes.png","3","respond_no.png","4","Word 5 of 12","1","Image 3 of 3","1","smile","4"
"ACM1CEGHXTKZP","practiceBlock","centre_mouse","12","285","reveal","Picture2.jpg","N_1.png","1","N_2.png","2","N_3.png","3","N_4.png","4","Y_1.png","1","Y_2.png","2","Y_3.png","3","Y_4.png","4","confidence.png","1","guessing.png","2","respond_yes.png","3","respond_no.png","4","Word 5 of 12","1","Image 3 of 3","1","reveal.png","5"
"ACM1CEGHXTKZP","practiceBlock","practice_absent_trial","13","719","no_4","Picture2.jpg","N_1.png","1","N_2.png","2","N_3.png","3","N_4.png","4","Y_1.png","1","Y_2.png","2","Y_3.png","3","Y_4.png","4","confidence.png","1","guessing.png","2","respond_yes.png","3","respond_no.png","4","Word 6 of 12","1","Image 3 of 3","1","grey-clothes","4"
"ACM1CEGHXTKZP","practiceBlock","centre_mouse","14","265","reveal","Picture2.jpg","N_1.png","1","N_2.png","2","N_3.png","3","N_4.png","4","Y_1.png","1","Y_2.png","2","Y_3.png","3","Y_4.png","4","confidence.png","1","guessing.png","2","respond_yes.png","3","respond_no.png","4","Word 6 of 12","1","Image 3 of 3","1","reveal.png","5"
"ACM1CEGHXTKZP","practiceBlock","practice_present_trial","15","540","yes_4","Picture2.jpg","N_1.png","1","N_2.png","2","N_3.png","3","N_4.png","4","Y_1.png","1","Y_2.png","2","Y_3.png","3","Y_4.png","4","confidence.png","1","guessing.png","2","respond_yes.png","3","respond_no.png","4","Word 7 of 12","1","Image 3 of 3","1","eyes","3"
"ACM1CEGHXTKZP","practiceBlock","centre_mouse","16","247","reveal","Picture2.jpg","N_1.png","1","N_2.png","2","N_3.png","3","N_4.png","4","Y_1.png","1","Y_2.png","2","Y_3.png","3","Y_4.png","4","confidence.png","1","guessing.png","2","respond_yes.png","3","respond_no.png","4","Word 7 of 12","1","Image 3 of 3","1","reveal.png","5"
"ACM1CEGHXTKZP","practiceBlock","practice_present_trial","17","658","yes_4","Picture2.jpg","N_1.png","1","N_2.png","2","N_3.png","3","N_4.png","4","Y_1.png","1","Y_2.png","2","Y_3.png","3","Y_4.png","4","confidence.png","1","guessing.png","2","respond_yes.png","3","respond_no.png","4","Word 8 of 12","1","Image 3 of 3","1","emoji","6"
"ACM1CEGHXTKZP","practiceBlock","centre_mouse","18","260","reveal","Picture2.jpg","N_1.png","1","N_2.png","2","N_3.png","3","N_4.png","4","Y_1.png","1","Y_2.png","2","Y_3.png","3","Y_4.png","4","confidence.png","1","guessing.png","2","respond_yes.png","3","respond_no.png","4","Word 8 of 12","1","Image 3 of 3","1","reveal.png","5"
"ACM1CEGHXTKZP","practiceBlock","practice_absent_trial","19","723","no_4","Picture2.jpg","N_1.png","1","N_2.png","2","N_3.png","3","N_4.png","4","Y_1.png","1","Y_2.png","2","Y_3.png","3","Y_4.png","4","confidence.png","1","guessing.png","2","respond_yes.png","3","respond_no.png","4","Word 9 of 12","1","Image 3 of 3","1","anxious","5"
"ACM1CEGHXTKZP","practiceBlock","centre_mouse","20","309","reveal","Picture2.jpg","N_1.png","1","N_2.png","2","N_3.png","3","N_4.png","4","Y_1.png","1","Y_2.png","2","Y_3.png","3","Y_4.png","4","confidence.png","1","guessing.png","2","respond_yes.png","3","respond_no.png","4","Word 9 of 12","1","Image 3 of 3","1","reveal.png","5"
"ACM1CEGHXTKZP","practiceBlock","practice_present_trial","21","570","yes_4","Picture2.jpg","N_1.png","1","N_2.png","2","N_3.png","3","N_4.png","4","Y_1.png","1","Y_2.png","2","Y_3.png","3","Y_4.png","4","confidence.png","1","guessing.png","2","respond_yes.png","3","respond_no.png","4","Word 10 of 12","1","Image 3 of 3","1","face","1"
"ACM1CEGHXTKZP","practiceBlock","centre_mouse","22","497","reveal","Picture2.jpg","N_1.png","1","N_2.png","2","N_3.png","3","N_4.png","4","Y_1.png","1","Y_2.png","2","Y_3.png","3","Y_4.png","4","confidence.png","1","guessing.png","2","respond_yes.png","3","respond_no.png","4","Word 10 of 12","1","Image 3 of 3","1","reveal.png","5"
"ACM1CEGHXTKZP","practiceBlock","practice_absent_trial","23","1547","no_4","Picture2.jpg","N_1.png","1","N_2.png","2","N_3.png","3","N_4.png","4","Y_1.png","1","Y_2.png","2","Y_3.png","3","Y_4.png","4","confidence.png","1","guessing.png","2","respond_yes.png","3","respond_no.png","4","Word 11 of 12","1","Image 3 of 3","1","metal","3"
"ACM1CEGHXTKZP","practiceBlock","centre_mouse","24","258","reveal","Picture2.jpg","N_1.png","1","N_2.png","2","N_3.png","3","N_4.png","4","Y_1.png","1","Y_2.png","2","Y_3.png","3","Y_4.png","4","confidence.png","1","guessing.png","2","respond_yes.png","3","respond_no.png","4","Word 11 of 12","1","Image 3 of 3","1","reveal.png","5"
"ACM1CEGHXTKZP","practiceBlock","practice_present_trial","25","823","yes_4","Picture2.jpg","N_1.png","1","N_2.png","2","N_3.png","3","N_4.png","4","Y_1.png","1","Y_2.png","2","Y_3.png","3","Y_4.png","4","confidence.png","1","guessing.png","2","respond_yes.png","3","respond_no.png","4","Word 12 of 12","1","Image 3 of 3","1","happy","5"
"ACM1CEGHXTKZP","practiceBlock","centre_mouse","26","255","reveal","Picture2.jpg","N_1.png","1","N_2.png","2","N_3.png","3","N_4.png","4","Y_1.png","1","Y_2.png","2","Y_3.png","3","Y_4.png","4","confidence.png","1","guessing.png","2","respond_yes.png","3","respond_no.png","4","Word 12 of 12","1","Image 3 of 3","1","reveal.png","5"
"ACM1CEGHXTKZP","practiceBlock","catch_present_trial","27","850","yes_4","Picture2.jpg","N_1.png","1","N_2.png","2","N_3.png","3","N_4.png","4","Y_1.png","1","Y_2.png","2","Y_3.png","3","Y_4.png","4","confidence.png","1","guessing.png","2","respond_yes.png","3","respond_no.png","4","Word 12 of 12","1","Image 3 of 3","1","PRESS: Yes 4","4"
"ACM1CEGHXTKZP","practiceBlock","centre_mouse","28","328","reveal","Picture2.jpg","N_1.png","1","N_2.png","2","N_3.png","3","N_4.png","4","Y_1.png","1","Y_2.png","2","Y_3.png","3","Y_4.png","4","confidence.png","1","guessing.png","2","respond_yes.png","3","respond_no.png","4","Word 12 of 12","1","Image 3 of 3","1","reveal.png","5"
"ACM1CEGHXTKZP","practiceBlock","catch_absent_trial","29","604","yes_3","Picture2.jpg","N_1.png","1","N_2.png","2","N_3.png","3","N_4.png","4","Y_1.png","1","Y_2.png","2","Y_3.png","3","Y_4.png","4","confidence.png","1","guessing.png","2","respond_yes.png","3","respond_no.png","4","Word 12 of 12","1","Image 3 of 3","1","PRESS: No 3","3"
"ACM1CEGHXTKZP","practiceBlock","centre_mouse","30","1366","reveal","Picture2.jpg","N_1.png","1","N_2.png","2","N_3.png","3","N_4.png","4","Y_1.png","1","Y_2.png","2","Y_3.png","3","Y_4.png","4","confidence.png","1","guessing.png","2","respond_yes.png","3","respond_no.png","4","Word 12 of 12","1","Image 3 of 3","1","reveal.png","5"
"ACM1CEGHXTKZP","reset","reset","1","200","0","Picture2.jpg","0","0","0","0","0","0","0","0","0","0","0","0","0","0","0","0","0","0","0","0","0","0","0","0","0","0","0","0","0","0"
"ACM1CEGHXTKZP","testBlock","test","1","0","0","im0000041.jpg","+","1","im0000050.jpg","2","mask2.jpg","2","mask3.jpg","3","mask5.jpg","5","mask5.jpg","5","mask2.jpg","2","0","0","0","0","0","0","0","0","0","0","0","0","0","0","0","0"
"ACM1CEGHXTKZP","testBlock","centre_mouse","2","1580","reveal","im0000041.jpg","N_1.png","1","N_2.png","2","N_3.png","3","N_4.png","4","Y_1.png","1","Y_2.png","2","Y_3.png","3","Y_4.png","4","confidence.png","1","guessing.png","2","respond_yes.png","3","respond_no.png","4","Word 0 of 40","1","Image 1 of 5","1","reveal.png","5"
"ACM1CEGHXTKZP","testBlock","present_trial","3","1191","no_4","im0000050.jpg","N_1.png","1","N_2.png","2","N_3.png","3","N_4.png","4","Y_1.png","1","Y_2.png","2","Y_3.png","3","Y_4.png","4","confidence.png","1","guessing.png","2","respond_yes.png","3","respond_no.png","4","Word 1 of 40","1","Image 1 of 5","1","horse","16"
"ACM1CEGHXTKZP","testBlock","centre_mouse","4","373","reveal","im0000050.jpg","N_1.png","1","N_2.png","2","N_3.png","3","N_4.png","4","Y_1.png","1","Y_2.png","2","Y_3.png","3","Y_4.png","4","confidence.png","1","guessing.png","2","respond_yes.png","3","respond_no.png","4","Word 1 of 40","1","Image 1 of 5","1","reveal.png","5"
"ACM1CEGHXTKZP","testBlock","present_trial","5","500","yes_4","im0000050.jpg","N_1.png","1","N_2.png","2","N_3.png","3","N_4.png","4","Y_1.png","1","Y_2.png","2","Y_3.png","3","Y_4.png","4","confidence.png","1","guessing.png","2","respond_yes.png","3","respond_no.png","4","Word 2 of 40","1","Image 1 of 5","1","human","17"
"ACM1CEGHXTKZP","testBlock","centre_mouse","6","271","reveal","im0000050.jpg","N_1.png","1","N_2.png","2","N_3.png","3","N_4.png","4","Y_1.png","1","Y_2.png","2","Y_3.png","3","Y_4.png","4","confidence.png","1","guessing.png","2","respond_yes.png","3","respond_no.png","4","Word 2 of 40","1","Image 1 of 5","1","reveal.png","5"
"ACM1CEGHXTKZP","testBlock","present_trial","7","876","yes_4","im0000050.jpg","N_1.png","1","N_2.png","2","N_3.png","3","N_4.png","4","Y_1.png","1","Y_2.png","2","Y_3.png","3","Y_4.png","4","confidence.png","1","guessing.png","2","respond_yes.png","3","respond_no.png","4","Word 3 of 40","1","Image 1 of 5","1","store","8"
"ACM1CEGHXTKZP","testBlock","centre_mouse","8","535","reveal","im0000050.jpg","N_1.png","1","N_2.png","2","N_3.png","3","N_4.png","4","Y_1.png","1","Y_2.png","2","Y_3.png","3","Y_4.png","4","confidence.png","1","guessing.png","2","respond_yes.png","3","respond_no.png","4","Word 3 of 40","1","Image 1 of 5","1","reveal.png","5"
"ACM1CEGHXTKZP","testBlock","present_trial","9","784","yes_4","im0000050.jpg","N_1.png","1","N_2.png","2","N_3.png","3","N_4.png","4","Y_1.png","1","Y_2.png","2","Y_3.png","3","Y_4.png","4","confidence.png","1","guessing.png","2","respond_yes.png","3","respond_no.png","4","Word 4 of 40","1","Image 1 of 5","1","purchase","9"
"ACM1CEGHXTKZP","testBlock","centre_mouse","10","634","reveal","im0000050.jpg","N_1.png","1","N_2.png","2","N_3.png","3","N_4.png","4","Y_1.png","1","Y_2.png","2","Y_3.png","3","Y_4.png","4","confidence.png","1","guessing.png","2","respond_yes.png","3","respond_no.png","4","Word 4 of 40","1","Image 1 of 5","1","reveal.png","5"
"ACM1CEGHXTKZP","testBlock","absent_trial","11","1788","yes_2","im0000050.jpg","N_1.png","1","N_2.png","2","N_3.png","3","N_4.png","4","Y_1.png","1","Y_2.png","2","Y_3.png","3","Y_4.png","4","confidence.png","1","guessing.png","2","respond_yes.png","3","respond_no.png","4","Word 5 of 40","1","Image 1 of 5","1","salesman","15"
"ACM1CEGHXTKZP","testBlock","centre_mouse","12","271","reveal","im0000050.jpg","N_1.png","1","N_2.png","2","N_3.png","3","N_4.png","4","Y_1.png","1","Y_2.png","2","Y_3.png","3","Y_4.png","4","confidence.png","1","guessing.png","2","respond_yes.png","3","respond_no.png","4","Word 5 of 40","1","Image 1 of 5","1","reveal.png","5"
"ACM1CEGHXTKZP","testBlock","present_trial","13","1517","no_2","im0000050.jpg","N_1.png","1","N_2.png","2","N_3.png","3","N_4.png","4","Y_1.png","1","Y_2.png","2","Y_3.png","3","Y_4.png","4","confidence.png","1","guessing.png","2","respond_yes.png","3","respond_no.png","4","Word 6 of 40","1","Image 1 of 5","1","shop","3"
"ACM1CEGHXTKZP","testBlock","centre_mouse","14","456","reveal","im0000050.jpg","N_1.png","1","N_2.png","2","N_3.png","3","N_4.png","4","Y_1.png","1","Y_2.png","2","Y_3.png","3","Y_4.png","4","confidence.png","1","guessing.png","2","respond_yes.png","3","respond_no.png","4","Word 6 of 40","1","Image 1 of 5","1","reveal.png","5"
"ACM1CEGHXTKZP","testBlock","present_trial","15","926","yes_4","im0000050.jpg","N_1.png","1","N_2.png","2","N_3.png","3","N_4.png","4","Y_1.png","1","Y_2.png","2","Y_3.png","3","Y_4.png","4","confidence.png","1","guessing.png","2","respond_yes.png","3","respond_no.png","4","Word 7 of 40","1","Image 1 of 5","1","people","4"
"ACM1CEGHXTKZP","testBlock","centre_mouse","16","229","reveal","im0000050.jpg","N_1.png","1","N_2.png","2","N_3.png","3","N_4.png","4","Y_1.png","1","Y_2.png","2","Y_3.png","3","Y_4.png","4","confidence.png","1","guessing.png","2","respond_yes.png","3","respond_no.png","4","Word 7 of 40","1","Image 1 of 5","1","reveal.png","5"
"ACM1CEGHXTKZP","testBlock","present_trial","17","1642","no_2","im0000050.jpg","N_1.png","1","N_2.png","2","N_3.png","3","N_4.png","4","Y_1.png","1","Y_2.png","2","Y_3.png","3","Y_4.png","4","confidence.png","1","guessing.png","2","respond_yes.png","3","respond_no.png","4","Word 8 of 40","1","Image 1 of 5","1","crowd","13"
"ACM1CEGHXTKZP","testBlock","centre_mouse","18","493","reveal","im0000050.jpg","N_1.png","1","N_2.png","2","N_3.png","3","N_4.png","4","Y_1.png","1","Y_2.png","2","Y_3.png","3","Y_4.png","4","confidence.png","1","guessing.png","2","respond_yes.png","3","respond_no.png","4","Word 8 of 40","1","Image 1 of 5","1","reveal.png","5"
"ACM1CEGHXTKZP","testBlock","absent_trial","19","831","no_2","im0000050.jpg","N_1.png","1","N_2.png","2","N_3.png","3","N_4.png","4","Y_1.png","1","Y_2.png","2","Y_3.png","3","Y_4.png","4","confidence.png","1","guessing.png","2","respond_yes.png","3","respond_no.png","4","Word 9 of 40","1","Image 1 of 5","1","swing","14"
"ACM1CEGHXTKZP","testBlock","centre_mouse","20","587","reveal","im0000050.jpg","N_1.png","1","N_2.png","2","N_3.png","3","N_4.png","4","Y_1.png","1","Y_2.png","2","Y_3.png","3","Y_4.png","4","confidence.png","1","guessing.png","2","respond_yes.png","3","respond_no.png","4","Word 9 of 40","1","Image 1 of 5","1","reveal.png","5"
"ACM1CEGHXTKZP","testBlock","absent_trial","21","867","no_4","im0000050.jpg","N_1.png","1","N_2.png","2","N_3.png","3","N_4.png","4","Y_1.png","1","Y_2.png","2","Y_3.png","3","Y_4.png","4","confidence.png","1","guessing.png","2","respond_yes.png","3","respond_no.png","4","Word 10 of 40","1","Image 1 of 5","1","water","8"
"ACM1CEGHXTKZP","testBlock","centre_mouse","22","526","reveal","im0000050.jpg","N_1.png","1","N_2.png","2","N_3.png","3","N_4.png","4","Y_1.png","1","Y_2.png","2","Y_3.png","3","Y_4.png","4","confidence.png","1","guessing.png","2","respond_yes.png","3","respond_no.png","4","Word 10 of 40","1","Image 1 of 5","1","reveal.png","5"
"ACM1CEGHXTKZP","testBlock","absent_trial","23","1300","no_4","im0000050.jpg","N_1.png","1","N_2.png","2","N_3.png","3","N_4.png","4","Y_1.png","1","Y_2.png","2","Y_3.png","3","Y_4.png","4","confidence.png","1","guessing.png","2","respond_yes.png","3","respond_no.png","4","Word 11 of 40","1","Image 1 of 5","1","coin","17"
"ACM1CEGHXTKZP","testBlock","centre_mouse","24","455","reveal","im0000050.jpg","N_1.png","1","N_2.png","2","N_3.png","3","N_4.png","4","Y_1.png","1","Y_2.png","2","Y_3.png","3","Y_4.png","4","confidence.png","1","guessing.png","2","respond_yes.png","3","respond_no.png","4","Word 11 of 40","1","Image 1 of 5","1","reveal.png","5"
"ACM1CEGHXTKZP","testBlock","present_trial","25","781","no_4","im0000050.jpg","N_1.png","1","N_2.png","2","N_3.png","3","N_4.png","4","Y_1.png","1","Y_2.png","2","Y_3.png","3","Y_4.png","4","confidence.png","1","guessing.png","2","respond_yes.png","3","respond_no.png","4","Word 12 of 40","1","Image 1 of 5","1","army-people","20"
"ACM1CEGHXTKZP","testBlock","centre_mouse","26","268","reveal","im0000050.jpg","N_1.png","1","N_2.png","2","N_3.png","3","N_4.png","4","Y_1.png","1","Y_2.png","2","Y_3.png","3","Y_4.png","4","confidence.png","1","guessing.png","2","respond_yes.png","3","respond_no.png","4","Word 12 of 40","1","Image 1 of 5","1","reveal.png","5"
"ACM1CEGHXTKZP","testBlock","absent_trial","27","711","no_4","im0000050.jpg","N_1.png","1","N_2.png","2","N_3.png","3","N_4.png","4","Y_1.png","1","Y_2.png","2","Y_3.png","3","Y_4.png","4","confidence.png","1","guessing.png","2","respond_yes.png","3","respond_no.png","4","Word 13 of 40","1","Image 1 of 5","1","pole","39"
"ACM1CEGHXTKZP","testBlock","centre_mouse","28","632","reveal","im0000050.jpg","N_1.png","1","N_2.png","2","N_3.png","3","N_4.png","4","Y_1.png","1","Y_2.png","2","Y_3.png","3","Y_4.png","4","confidence.png","1","guessing.png","2","respond_yes.png","3","respond_no.png","4","Word 13 of 40","1","Image 1 of 5","1","reveal.png","5"
"ACM1CEGHXTKZP","testBlock","absent_trial","29","3216","no_4","im0000050.jpg","N_1.png","1","N_2.png","2","N_3.png","3","N_4.png","4","Y_1.png","1","Y_2.png","2","Y_3.png","3","Y_4.png","4","confidence.png","1","guessing.png","2","respond_yes.png","3","respond_no.png","4","Word 14 of 40","1","Image 1 of 5","1","gate","11"
"ACM1CEGHXTKZP","testBlock","centre_mouse","30","276","reveal","im0000050.jpg","N_1.png","1","N_2.png","2","N_3.png","3","N_4.png","4","Y_1.png","1","Y_2.png","2","Y_3.png","3","Y_4.png","4","confidence.png","1","guessing.png","2","respond_yes.png","3","respond_no.png","4","Word 14 of 40","1","Image 1 of 5","1","reveal.png","5"
"ACM1CEGHXTKZP","testBlock","absent_trial","31","980","no_4","im0000050.jpg","N_1.png","1","N_2.png","2","N_3.png","3","N_4.png","4","Y_1.png","1","Y_2.png","2","Y_3.png","3","Y_4.png","4","confidence.png","1","guessing.png","2","respond_yes.png","3","respond_no.png","4","Word 15 of 40","1","Image 1 of 5","1","amusement-park","13"
"ACM1CEGHXTKZP","testBlock","centre_mouse","32","558","reveal","im0000050.jpg","N_1.png","1","N_2.png","2","N_3.png","3","N_4.png","4","Y_1.png","1","Y_2.png","2","Y_3.png","3","Y_4.png","4","confidence.png","1","guessing.png","2","respond_yes.png","3","respond_no.png","4","Word 15 of 40","1","Image 1 of 5","1","reveal.png","5"
"ACM1CEGHXTKZP","testBlock","absent_trial","33","719","no_4","im0000050.jpg","N_1.png","1","N_2.png","2","N_3.png","3","N_4.png","4","Y_1.png","1","Y_2.png","2","Y_3.png","3","Y_4.png","4","confidence.png","1","guessing.png","2","respond_yes.png","3","respond_no.png","4","Word 16 of 40","1","Image 1 of 5","1","historic","22"
"ACM1CEGHXTKZP","testBlock","centre_mouse","34","510","reveal","im0000050.jpg","N_1.png","1","N_2.png","2","N_3.png","3","N_4.png","4","Y_1.png","1","Y_2.png","2","Y_3.png","3","Y_4.png","4","confidence.png","1","guessing.png","2","respond_yes.png","3","respond_no.png","4","Word 16 of 40","1","Image 1 of 5","1","reveal.png","5"
"ACM1CEGHXTKZP","testBlock","absent_trial","35","559","no_4","im0000050.jpg","N_1.png","1","N_2.png","2","N_3.png","3","N_4.png","4","Y_1.png","1","Y_2.png","2","Y_3.png","3","Y_4.png","4","confidence.png","1","guessing.png","2","respond_yes.png","3","respond_no.png","4","Word 17 of 40","1","Image 1 of 5","1","grey-clothes","4"
"ACM1CEGHXTKZP","testBlock","centre_mouse","36","377","reveal","im0000050.jpg","N_1.png","1","N_2.png","2","N_3.png","3","N_4.png","4","Y_1.png","1","Y_2.png","2","Y_3.png","3","Y_4.png","4","confidence.png","1","guessing.png","2","respond_yes.png","3","respond_no.png","4","Word 17 of 40","1","Image 1 of 5","1","reveal.png","5"
"ACM1CEGHXTKZP","testBlock","present_trial","37","1224","yes_4","im0000050.jpg","N_1.png","1","N_2.png","2","N_3.png","3","N_4.png","4","Y_1.png","1","Y_2.png","2","Y_3.png","3","Y_4.png","4","confidence.png","1","guessing.png","2","respond_yes.png","3","respond_no.png","4","Word 18 of 40","1","Image 1 of 5","1","cap","12"
"ACM1CEGHXTKZP","testBlock","centre_mouse","38","482","reveal","im0000050.jpg","N_1.png","1","N_2.png","2","N_3.png","3","N_4.png","4","Y_1.png","1","Y_2.png","2","Y_3.png","3","Y_4.png","4","confidence.png","1","guessing.png","2","respond_yes.png","3","respond_no.png","4","Word 18 of 40","1","Image 1 of 5","1","reveal.png","5"
"ACM1CEGHXTKZP","testBlock","catch_absent_trial","39","845","yes_4","im0000050.jpg","N_1.png","1","N_2.png","2","N_3.png","3","N_4.png","4","Y_1.png","1","Y_2.png","2","Y_3.png","3","Y_4.png","4","confidence.png","1","guessing.png","2","respond_yes.png","3","respond_no.png","4","Word 18 of 40","1","Image 1 of 5","1","PRESS: No 4","4"
"ACM1CEGHXTKZP","testBlock","centre_mouse","40","360","reveal","im0000050.jpg","N_1.png","1","N_2.png","2","N_3.png","3","N_4.png","4","Y_1.png","1","Y_2.png","2","Y_3.png","3","Y_4.png","4","confidence.png","1","guessing.png","2","respond_yes.png","3","respond_no.png","4","Word 18 of 40","1","Image 1 of 5","1","reveal.png","5"
"ACM1CEGHXTKZP","testBlock","absent_trial","41","2217","no_4","im0000050.jpg","N_1.png","1","N_2.png","2","N_3.png","3","N_4.png","4","Y_1.png","1","Y_2.png","2","Y_3.png","3","Y_4.png","4","confidence.png","1","guessing.png","2","respond_yes.png","3","respond_no.png","4","Word 19 of 40","1","Image 1 of 5","1","cloud","21"
"ACM1CEGHXTKZP","testBlock","centre_mouse","42","277","reveal","im0000050.jpg","N_1.png","1","N_2.png","2","N_3.png","3","N_4.png","4","Y_1.png","1","Y_2.png","2","Y_3.png","3","Y_4.png","4","confidence.png","1","guessing.png","2","respond_yes.png","3","respond_no.png","4","Word 19 of 40","1","Image 1 of 5","1","reveal.png","5"
"ACM1CEGHXTKZP","testBlock","absent_trial","43","735","no_4","im0000050.jpg","N_1.png","1","N_2.png","2","N_3.png","3","N_4.png","4","Y_1.png","1","Y_2.png","2","Y_3.png","3","Y_4.png","4","confidence.png","1","guessing.png","2","respond_yes.png","3","respond_no.png","4","Word 20 of 40","1","Image 1 of 5","1","wall","37"
"ACM1CEGHXTKZP","testBlock","centre_mouse","44","277","reveal","im0000050.jpg","N_1.png","1","N_2.png","2","N_3.png","3","N_4.png","4","Y_1.png","1","Y_2.png","2","Y_3.png","3","Y_4.png","4","confidence.png","1","guessing.png","2","respond_yes.png","3","respond_no.png","4","Word 20 of 40","1","Image 1 of 5","1","reveal.png","5"
"ACM1CEGHXTKZP","testBlock","absent_trial","45","1580","no_4","im0000050.jpg","N_1.png","1","N_2.png","2","N_3.png","3","N_4.png","4","Y_1.png","1","Y_2.png","2","Y_3.png","3","Y_4.png","4","confidence.png","1","guessing.png","2","respond_yes.png","3","respond_no.png","4","Word 21 of 40","1","Image 1 of 5","1","metal","3"
"ACM1CEGHXTKZP","testBlock","centre_mouse","46","286","reveal","im0000050.jpg","N_1.png","1","N_2.png","2","N_3.png","3","N_4.png","4","Y_1.png","1","Y_2.png","2","Y_3.png","3","Y_4.png","4","confidence.png","1","guessing.png","2","respond_yes.png","3","respond_no.png","4","Word 21 of 40","1","Image 1 of 5","1","reveal.png","5"
"ACM1CEGHXTKZP","testBlock","present_trial","47","1545","yes_3","im0000050.jpg","N_1.png","1","N_2.png","2","N_3.png","3","N_4.png","4","Y_1.png","1","Y_2.png","2","Y_3.png","3","Y_4.png","4","confidence.png","1","guessing.png","2","respond_yes.png","3","respond_no.png","4","Word 22 of 40","1","Image 1 of 5","1","banana","10"
"ACM1CEGHXTKZP","testBlock","centre_mouse","48","482","reveal","im0000050.jpg","N_1.png","1","N_2.png","2","N_3.png","3","N_4.png","4","Y_1.png","1","Y_2.png","2","Y_3.png","3","Y_4.png","4","confidence.png","1","guessing.png","2","respond_yes.png","3","respond_no.png","4","Word 22 of 40","1","Image 1 of 5","1","reveal.png","5"
"ACM1CEGHXTKZP","testBlock","present_trial","49","4977","no_2","im0000050.jpg","N_1.png","1","N_2.png","2","N_3.png","3","N_4.png","4","Y_1.png","1","Y_2.png","2","Y_3.png","3","Y_4.png","4","confidence.png","1","guessing.png","2","respond_yes.png","3","respond_no.png","4","Word 23 of 40","1","Image 1 of 5","1","saoorow","19"
"ACM1CEGHXTKZP","testBlock","centre_mouse","50","231","reveal","im0000050.jpg","N_1.png","1","N_2.png","2","N_3.png","3","N_4.png","4","Y_1.png","1","Y_2.png","2","Y_3.png","3","Y_4.png","4","confidence.png","1","guessing.png","2","respond_yes.png","3","respond_no.png","4","Word 23 of 40","1","Image 1 of 5","1","reveal.png","5"
"ACM1CEGHXTKZP","testBlock","present_trial","51","1391","yes_2","im0000050.jpg","N_1.png","1","N_2.png","2","N_3.png","3","N_4.png","4","Y_1.png","1","Y_2.png","2","Y_3.png","3","Y_4.png","4","confidence.png","1","guessing.png","2","respond_yes.png","3","respond_no.png","4","Word 24 of 40","1","Image 1 of 5","1","lady","18"
"ACM1CEGHXTKZP","testBlock","centre_mouse","52","493","reveal","im0000050.jpg","N_1.png","1","N_2.png","2","N_3.png","3","N_4.png","4","Y_1.png","1","Y_2.png","2","Y_3.png","3","Y_4.png","4","confidence.png","1","guessing.png","2","respond_yes.png","3","respond_no.png","4","Word 24 of 40","1","Image 1 of 5","1","reveal.png","5"
"ACM1CEGHXTKZP","testBlock","absent_trial","53","1359","no_2","im0000050.jpg","N_1.png","1","N_2.png","2","N_3.png","3","N_4.png","4","Y_1.png","1","Y_2.png","2","Y_3.png","3","Y_4.png","4","confidence.png","1","guessing.png","2","respond_yes.png","3","respond_no.png","4","Word 25 of 40","1","Image 1 of 5","1","walk","1"
"ACM1CEGHXTKZP","testBlock","centre_mouse","54","212","reveal","im0000050.jpg","N_1.png","1","N_2.png","2","N_3.png","3","N_4.png","4","Y_1.png","1","Y_2.png","2","Y_3.png","3","Y_4.png","4","confidence.png","1","guessing.png","2","respond_yes.png","3","respond_no.png","4","Word 25 of 40","1","Image 1 of 5","1","reveal.png","5"
"ACM1CEGHXTKZP","testBlock","present_trial","55","1506","no_2","im0000050.jpg","N_1.png","1","N_2.png","2","N_3.png","3","N_4.png","4","Y_1.png","1","Y_2.png","2","Y_3.png","3","Y_4.png","4","confidence.png","1","guessing.png","2","respond_yes.png","3","respond_no.png","4","Word 26 of 40","1","Image 1 of 5","1","city","15"
"ACM1CEGHXTKZP","testBlock","centre_mouse","56","456","reveal","im0000050.jpg","N_1.png","1","N_2.png","2","N_3.png","3","N_4.png","4","Y_1.png","1","Y_2.png","2","Y_3.png","3","Y_4.png","4","confidence.png","1","guessing.png","2","respond_yes.png","3","respond_no.png","4","Word 26 of 40","1","Image 1 of 5","1","reveal.png","5"
"ACM1CEGHXTKZP","testBlock","catch_absent_trial","57","872","no_2","im0000050.jpg","N_1.png","1","N_2.png","2","N_3.png","3","N_4.png","4","Y_1.png","1","Y_2.png","2","Y_3.png","3","Y_4.png","4","confidence.png","1","guessing.png","2","respond_yes.png","3","respond_no.png","4","Word 26 of 40","1","Image 1 of 5","1","PRESS: No 2","2"
"ACM1CEGHXTKZP","testBlock","centre_mouse","58","347","reveal","im0000050.jpg","N_1.png","1","N_2.png","2","N_3.png","3","N_4.png","4","Y_1.png","1","Y_2.png","2","Y_3.png","3","Y_4.png","4","confidence.png","1","guessing.png","2","respond_yes.png","3","respond_no.png","4","Word 26 of 40","1","Image 1 of 5","1","reveal.png","5"
"ACM1CEGHXTKZP","testBlock","absent_trial","59","1274","no_4","im0000050.jpg","N_1.png","1","N_2.png","2","N_3.png","3","N_4.png","4","Y_1.png","1","Y_2.png","2","Y_3.png","3","Y_4.png","4","confidence.png","1","guessing.png","2","respond_yes.png","3","respond_no.png","4","Word 27 of 40","1","Image 1 of 5","1","mud","34"
"ACM1CEGHXTKZP","testBlock","centre_mouse","60","329","reveal","im0000050.jpg","N_1.png","1","N_2.png","2","N_3.png","3","N_4.png","4","Y_1.png","1","Y_2.png","2","Y_3.png","3","Y_4.png","4","confidence.png","1","guessing.png","2","respond_yes.png","3","respond_no.png","4","Word 27 of 40","1","Image 1 of 5","1","reveal.png","5"
"ACM1CEGHXTKZP","testBlock","absent_trial","61","1164","yes_4","im0000050.jpg","N_1.png","1","N_2.png","2","N_3.png","3","N_4.png","4","Y_1.png","1","Y_2.png","2","Y_3.png","3","Y_4.png","4","confidence.png","1","guessing.png","2","respond_yes.png","3","respond_no.png","4","Word 28 of 40","1","Image 1 of 5","1","place","32"
"ACM1CEGHXTKZP","testBlock","centre_mouse","62","248","reveal","im0000050.jpg","N_1.png","1","N_2.png","2","N_3.png","3","N_4.png","4","Y_1.png","1","Y_2.png","2","Y_3.png","3","Y_4.png","4","confidence.png","1","guessing.png","2","respond_yes.png","3","respond_no.png","4","Word 28 of 40","1","Image 1 of 5","1","reveal.png","5"
"ACM1CEGHXTKZP","testBlock","absent_trial","63","756","yes_4","im0000050.jpg","N_1.png","1","N_2.png","2","N_3.png","3","N_4.png","4","Y_1.png","1","Y_2.png","2","Y_3.png","3","Y_4.png","4","confidence.png","1","guessing.png","2","respond_yes.png","3","respond_no.png","4","Word 29 of 40","1","Image 1 of 5","1","amaze","20"
"ACM1CEGHXTKZP","testBlock","centre_mouse","64","608","reveal","im0000050.jpg","N_1.png","1","N_2.png","2","N_3.png","3","N_4.png","4","Y_1.png","1","Y_2.png","2","Y_3.png","3","Y_4.png","4","confidence.png","1","guessing.png","2","respond_yes.png","3","respond_no.png","4","Word 29 of 40","1","Image 1 of 5","1","reveal.png","5"
"ACM1CEGHXTKZP","testBlock","present_trial","65","584","yes_4","im0000050.jpg","N_1.png","1","N_2.png","2","N_3.png","3","N_4.png","4","Y_1.png","1","Y_2.png","2","Y_3.png","3","Y_4.png","4","confidence.png","1","guessing.png","2","respond_yes.png","3","respond_no.png","4","Word 30 of 40","1","Image 1 of 5","1","man","1"
"ACM1CEGHXTKZP","testBlock","centre_mouse","66","555","reveal","im0000050.jpg","N_1.png","1","N_2.png","2","N_3.png","3","N_4.png","4","Y_1.png","1","Y_2.png","2","Y_3.png","3","Y_4.png","4","confidence.png","1","guessing.png","2","respond_yes.png","3","respond_no.png","4","Word 30 of 40","1","Image 1 of 5","1","reveal.png","5"
"ACM1CEGHXTKZP","testBlock","present_trial","67","685","yes_4","im0000050.jpg","N_1.png","1","N_2.png","2","N_3.png","3","N_4.png","4","Y_1.png","1","Y_2.png","2","Y_3.png","3","Y_4.png","4","confidence.png","1","guessing.png","2","respond_yes.png","3","respond_no.png","4","Word 31 of 40","1","Image 1 of 5","1","fruit","2"
"ACM1CEGHXTKZP","testBlock","centre_mouse","68","217","reveal","im0000050.jpg","N_1.png","1","N_2.png","2","N_3.png","3","N_4.png","4","Y_1.png","1","Y_2.png","2","Y_3.png","3","Y_4.png","4","confidence.png","1","guessing.png","2","respond_yes.png","3","respond_no.png","4","Word 31 of 40","1","Image 1 of 5","1","reveal.png","5"
"ACM1CEGHXTKZP","testBlock","absent_trial","69","1527","no_2","im0000050.jpg","N_1.png","1","N_2.png","2","N_3.png","3","N_4.png","4","Y_1.png","1","Y_2.png","2","Y_3.png","3","Y_4.png","4","confidence.png","1","guessing.png","2","respond_yes.png","3","respond_no.png","4","Word 32 of 40","1","Image 1 of 5","1","cooling-glass","24"
"ACM1CEGHXTKZP","testBlock","centre_mouse","70","741","reveal","im0000050.jpg","N_1.png","1","N_2.png","2","N_3.png","3","N_4.png","4","Y_1.png","1","Y_2.png","2","Y_3.png","3","Y_4.png","4","confidence.png","1","guessing.png","2","respond_yes.png","3","respond_no.png","4","Word 32 of 40","1","Image 1 of 5","1","reveal.png","5"
"ACM1CEGHXTKZP","testBlock","absent_trial","71","1202","no_4","im0000050.jpg","N_1.png","1","N_2.png","2","N_3.png","3","N_4.png","4","Y_1.png","1","Y_2.png","2","Y_3.png","3","Y_4.png","4","confidence.png","1","guessing.png","2","respond_yes.png","3","respond_no.png","4","Word 33 of 40","1","Image 1 of 5","1","sky","30"
"ACM1CEGHXTKZP","testBlock","centre_mouse","72","630","reveal","im0000050.jpg","N_1.png","1","N_2.png","2","N_3.png","3","N_4.png","4","Y_1.png","1","Y_2.png","2","Y_3.png","3","Y_4.png","4","confidence.png","1","guessing.png","2","respond_yes.png","3","respond_no.png","4","Word 33 of 40","1","Image 1 of 5","1","reveal.png","5"
"ACM1CEGHXTKZP","testBlock","present_trial","73","2322","yes_1","im0000050.jpg","N_1.png","1","N_2.png","2","N_3.png","3","N_4.png","4","Y_1.png","1","Y_2.png","2","Y_3.png","3","Y_4.png","4","confidence.png","1","guessing.png","2","respond_yes.png","3","respond_no.png","4","Word 34 of 40","1","Image 1 of 5","1","orange","7"
"ACM1CEGHXTKZP","testBlock","centre_mouse","74","354","reveal","im0000050.jpg","N_1.png","1","N_2.png","2","N_3.png","3","N_4.png","4","Y_1.png","1","Y_2.png","2","Y_3.png","3","Y_4.png","4","confidence.png","1","guessing.png","2","respond_yes.png","3","respond_no.png","4","Word 34 of 40","1","Image 1 of 5","1","reveal.png","5"
"ACM1CEGHXTKZP","testBlock","present_trial","75","1486","yes_1","im0000050.jpg","N_1.png","1","N_2.png","2","N_3.png","3","N_4.png","4","Y_1.png","1","Y_2.png","2","Y_3.png","3","Y_4.png","4","confidence.png","1","guessing.png","2","respond_yes.png","3","respond_no.png","4","Word 35 of 40","1","Image 1 of 5","1","woman","11"
"ACM1CEGHXTKZP","testBlock","centre_mouse","76","485","reveal","im0000050.jpg","N_1.png","1","N_2.png","2","N_3.png","3","N_4.png","4","Y_1.png","1","Y_2.png","2","Y_3.png","3","Y_4.png","4","confidence.png","1","guessing.png","2","respond_yes.png","3","respond_no.png","4","Word 35 of 40","1","Image 1 of 5","1","reveal.png","5"
"ACM1CEGHXTKZP","testBlock","absent_trial","77","3377","no_1","im0000050.jpg","N_1.png","1","N_2.png","2","N_3.png","3","N_4.png","4","Y_1.png","1","Y_2.png","2","Y_3.png","3","Y_4.png","4","confidence.png","1","guessing.png","2","respond_yes.png","3","respond_no.png","4","Word 36 of 40","1","Image 1 of 5","1","cotton-shirt","25"
"ACM1CEGHXTKZP","testBlock","centre_mouse","78","353","reveal","im0000050.jpg","N_1.png","1","N_2.png","2","N_3.png","3","N_4.png","4","Y_1.png","1","Y_2.png","2","Y_3.png","3","Y_4.png","4","confidence.png","1","guessing.png","2","respond_yes.png","3","respond_no.png","4","Word 36 of 40","1","Image 1 of 5","1","reveal.png","5"
"ACM1CEGHXTKZP","testBlock","present_trial","79","1102","yes_3","im0000050.jpg","N_1.png","1","N_2.png","2","N_3.png","3","N_4.png","4","Y_1.png","1","Y_2.png","2","Y_3.png","3","Y_4.png","4","confidence.png","1","guessing.png","2","respond_yes.png","3","respond_no.png","4","Word 37 of 40","1","Image 1 of 5","1","person","14"
"ACM1CEGHXTKZP","testBlock","centre_mouse","80","285","reveal","im0000050.jpg","N_1.png","1","N_2.png","2","N_3.png","3","N_4.png","4","Y_1.png","1","Y_2.png","2","Y_3.png","3","Y_4.png","4","confidence.png","1","guessing.png","2","respond_yes.png","3","respond_no.png","4","Word 37 of 40","1","Image 1 of 5","1","reveal.png","5"
"ACM1CEGHXTKZP","testBlock","absent_trial","81","1860","no_1","im0000050.jpg","N_1.png","1","N_2.png","2","N_3.png","3","N_4.png","4","Y_1.png","1","Y_2.png","2","Y_3.png","3","Y_4.png","4","confidence.png","1","guessing.png","2","respond_yes.png","3","respond_no.png","4","Word 38 of 40","1","Image 1 of 5","1","together","33"
"ACM1CEGHXTKZP","testBlock","centre_mouse","82","269","reveal","im0000050.jpg","N_1.png","1","N_2.png","2","N_3.png","3","N_4.png","4","Y_1.png","1","Y_2.png","2","Y_3.png","3","Y_4.png","4","confidence.png","1","guessing.png","2","respond_yes.png","3","respond_no.png","4","Word 38 of 40","1","Image 1 of 5","1","reveal.png","5"
"ACM1CEGHXTKZP","testBlock","present_trial","83","849","yes_4","im0000050.jpg","N_1.png","1","N_2.png","2","N_3.png","3","N_4.png","4","Y_1.png","1","Y_2.png","2","Y_3.png","3","Y_4.png","4","confidence.png","1","guessing.png","2","respond_yes.png","3","respond_no.png","4","Word 39 of 40","1","Image 1 of 5","1","market","5"
"ACM1CEGHXTKZP","testBlock","centre_mouse","84","239","reveal","im0000050.jpg","N_1.png","1","N_2.png","2","N_3.png","3","N_4.png","4","Y_1.png","1","Y_2.png","2","Y_3.png","3","Y_4.png","4","confidence.png","1","guessing.png","2","respond_yes.png","3","respond_no.png","4","Word 39 of 40","1","Image 1 of 5","1","reveal.png","5"
"ACM1CEGHXTKZP","testBlock","present_trial","85","1008","yes_4","im0000050.jpg","N_1.png","1","N_2.png","2","N_3.png","3","N_4.png","4","Y_1.png","1","Y_2.png","2","Y_3.png","3","Y_4.png","4","confidence.png","1","guessing.png","2","respond_yes.png","3","respond_no.png","4","Word 40 of 40","1","Image 1 of 5","1","apple","6"
"ACM1CEGHXTKZP","testBlock","centre_mouse","86","489","reveal","im0000050.jpg","N_1.png","1","N_2.png","2","N_3.png","3","N_4.png","4","Y_1.png","1","Y_2.png","2","Y_3.png","3","Y_4.png","4","confidence.png","1","guessing.png","2","respond_yes.png","3","respond_no.png","4","Word 40 of 40","1","Image 1 of 5","1","reveal.png","5"
"ACM1CEGHXTKZP","testBlock","test","1","0","0","im0000050.jpg","+","1","im0000063.jpg","4","mask4.jpg","4","mask5.jpg","5","mask3.jpg","3","mask3.jpg","3","mask1.jpg","1","0","0","0","0","0","0","0","0","0","0","0","0","0","0","0","0"
"ACM1CEGHXTKZP","testBlock","centre_mouse","2","1821","reveal","im0000050.jpg","N_1.png","1","N_2.png","2","N_3.png","3","N_4.png","4","Y_1.png","1","Y_2.png","2","Y_3.png","3","Y_4.png","4","confidence.png","1","guessing.png","2","respond_yes.png","3","respond_no.png","4","Word 0 of 40","1","Image 2 of 5","1","reveal.png","5"
"ACM1CEGHXTKZP","testBlock","absent_trial","3","9881","yes_4","im0000063.jpg","N_1.png","1","N_2.png","2","N_3.png","3","N_4.png","4","Y_1.png","1","Y_2.png","2","Y_3.png","3","Y_4.png","4","confidence.png","1","guessing.png","2","respond_yes.png","3","respond_no.png","4","Word 1 of 40","1","Image 2 of 5","1","day-time","11"
"ACM1CEGHXTKZP","testBlock","centre_mouse","4","372","reveal","im0000063.jpg","N_1.png","1","N_2.png","2","N_3.png","3","N_4.png","4","Y_1.png","1","Y_2.png","2","Y_3.png","3","Y_4.png","4","confidence.png","1","guessing.png","2","respond_yes.png","3","respond_no.png","4","Word 1 of 40","1","Image 2 of 5","1","reveal.png","5"
"ACM1CEGHXTKZP","testBlock","present_trial","5","639","yes_4","im0000063.jpg","N_1.png","1","N_2.png","2","N_3.png","3","N_4.png","4","Y_1.png","1","Y_2.png","2","Y_3.png","3","Y_4.png","4","confidence.png","1","guessing.png","2","respond_yes.png","3","respond_no.png","4","Word 2 of 40","1","Image 2 of 5","1","water","1"
"ACM1CEGHXTKZP","testBlock","centre_mouse","6","275","reveal","im0000063.jpg","N_1.png","1","N_2.png","2","N_3.png","3","N_4.png","4","Y_1.png","1","Y_2.png","2","Y_3.png","3","Y_4.png","4","confidence.png","1","guessing.png","2","respond_yes.png","3","respond_no.png","4","Word 2 of 40","1","Image 2 of 5","1","reveal.png","5"
"ACM1CEGHXTKZP","testBlock","present_trial","7","492","yes_4","im0000063.jpg","N_1.png","1","N_2.png","2","N_3.png","3","N_4.png","4","Y_1.png","1","Y_2.png","2","Y_3.png","3","Y_4.png","4","confidence.png","1","guessing.png","2","respond_yes.png","3","respond_no.png","4","Word 3 of 40","1","Image 2 of 5","1","hippo","2"
"ACM1CEGHXTKZP","testBlock","centre_mouse","8","621","reveal","im0000063.jpg","N_1.png","1","N_2.png","2","N_3.png","3","N_4.png","4","Y_1.png","1","Y_2.png","2","Y_3.png","3","Y_4.png","4","confidence.png","1","guessing.png","2","respond_yes.png","3","respond_no.png","4","Word 3 of 40","1","Image 2 of 5","1","reveal.png","5"
"ACM1CEGHXTKZP","testBlock","present_trial","9","16229","no_3","im0000063.jpg","N_1.png","1","N_2.png","2","N_3.png","3","N_4.png","4","Y_1.png","1","Y_2.png","2","Y_3.png","3","Y_4.png","4","confidence.png","1","guessing.png","2","respond_yes.png","3","respond_no.png","4","Word 4 of 40","1","Image 2 of 5","1","baby","3"
"ACM1CEGHXTKZP","testBlock","centre_mouse","10","491","reveal","im0000063.jpg","N_1.png","1","N_2.png","2","N_3.png","3","N_4.png","4","Y_1.png","1","Y_2.png","2","Y_3.png","3","Y_4.png","4","confidence.png","1","guessing.png","2","respond_yes.png","3","respond_no.png","4","Word 4 of 40","1","Image 2 of 5","1","reveal.png","5"
"ACM1CEGHXTKZP","testBlock","absent_trial","11","1104","yes_2","im0000063.jpg","N_1.png","1","N_2.png","2","N_3.png","3","N_4.png","4","Y_1.png","1","Y_2.png","2","Y_3.png","3","Y_4.png","4","confidence.png","1","guessing.png","2","respond_yes.png","3","respond_no.png","4","Word 5 of 40","1","Image 2 of 5","1","grass","8"
"ACM1CEGHXTKZP","testBlock","centre_mouse","12","363","reveal","im0000063.jpg","N_1.png","1","N_2.png","2","N_3.png","3","N_4.png","4","Y_1.png","1","Y_2.png","2","Y_3.png","3","Y_4.png","4","confidence.png","1","guessing.png","2","respond_yes.png","3","respond_no.png","4","Word 5 of 40","1","Image 2 of 5","1","reveal.png","5"
"ACM1CEGHXTKZP","testBlock","absent_trial","13","1515","yes_3","im0000063.jpg","N_1.png","1","N_2.png","2","N_3.png","3","N_4.png","4","Y_1.png","1","Y_2.png","2","Y_3.png","3","Y_4.png","4","confidence.png","1","guessing.png","2","respond_yes.png","3","respond_no.png","4","Word 6 of 40","1","Image 2 of 5","1","green","19"
"ACM1CEGHXTKZP","testBlock","centre_mouse","14","502","reveal","im0000063.jpg","N_1.png","1","N_2.png","2","N_3.png","3","N_4.png","4","Y_1.png","1","Y_2.png","2","Y_3.png","3","Y_4.png","4","confidence.png","1","guessing.png","2","respond_yes.png","3","respond_no.png","4","Word 6 of 40","1","Image 2 of 5","1","reveal.png","5"
"ACM1CEGHXTKZP","testBlock","absent_trial","15","1646","no_1","im0000063.jpg","N_1.png","1","N_2.png","2","N_3.png","3","N_4.png","4","Y_1.png","1","Y_2.png","2","Y_3.png","3","Y_4.png","4","confidence.png","1","guessing.png","2","respond_yes.png","3","respond_no.png","4","Word 7 of 40","1","Image 2 of 5","1","shine","34"
"ACM1CEGHXTKZP","testBlock","centre_mouse","16","491","reveal","im0000063.jpg","N_1.png","1","N_2.png","2","N_3.png","3","N_4.png","4","Y_1.png","1","Y_2.png","2","Y_3.png","3","Y_4.png","4","confidence.png","1","guessing.png","2","respond_yes.png","3","respond_no.png","4","Word 7 of 40","1","Image 2 of 5","1","reveal.png","5"
"ACM1CEGHXTKZP","testBlock","absent_trial","17","1521","no_2","im0000063.jpg","N_1.png","1","N_2.png","2","N_3.png","3","N_4.png","4","Y_1.png","1","Y_2.png","2","Y_3.png","3","Y_4.png","4","confidence.png","1","guessing.png","2","respond_yes.png","3","respond_no.png","4","Word 8 of 40","1","Image 2 of 5","1","head","32"
"ACM1CEGHXTKZP","testBlock","centre_mouse","18","248","reveal","im0000063.jpg","N_1.png","1","N_2.png","2","N_3.png","3","N_4.png","4","Y_1.png","1","Y_2.png","2","Y_3.png","3","Y_4.png","4","confidence.png","1","guessing.png","2","respond_yes.png","3","respond_no.png","4","Word 8 of 40","1","Image 2 of 5","1","reveal.png","5"
"ACM1CEGHXTKZP","testBlock","absent_trial","19","645","no_2","im0000063.jpg","N_1.png","1","N_2.png","2","N_3.png","3","N_4.png","4","Y_1.png","1","Y_2.png","2","Y_3.png","3","Y_4.png","4","confidence.png","1","guessing.png","2","respond_yes.png","3","respond_no.png","4","Word 9 of 40","1","Image 2 of 5","1","hike","12"
"ACM1CEGHXTKZP","testBlock","centre_mouse","20","251","reveal","im0000063.jpg","N_1.png","1","N_2.png","2","N_3.png","3","N_4.png","4","Y_1.png","1","Y_2.png","2","Y_3.png","3","Y_4.png","4","confidence.png","1","guessing.png","2","respond_yes.png","3","respond_no.png","4","Word 9 of 40","1","Image 2 of 5","1","reveal.png","5"
"ACM1CEGHXTKZP","testBlock","absent_trial","21","792","no_3","im0000063.jpg","N_1.png","1","N_2.png","2","N_3.png","3","N_4.png","4","Y_1.png","1","Y_2.png","2","Y_3.png","3","Y_4.png","4","confidence.png","1","guessing.png","2","respond_yes.png","3","respond_no.png","4","Word 10 of 40","1","Image 2 of 5","1","amaze","39"
"ACM1CEGHXTKZP","testBlock","centre_mouse","22","222","reveal","im0000063.jpg","N_1.png","1","N_2.png","2","N_3.png","3","N_4.png","4","Y_1.png","1","Y_2.png","2","Y_3.png","3","Y_4.png","4","confidence.png","1","guessing.png","2","respond_yes.png","3","respond_no.png","4","Word 10 of 40","1","Image 2 of 5","1","reveal.png","5"
"ACM1CEGHXTKZP","testBlock","present_trial","23","687","yes_4","im0000063.jpg","N_1.png","1","N_2.png","2","N_3.png","3","N_4.png","4","Y_1.png","1","Y_2.png","2","Y_3.png","3","Y_4.png","4","confidence.png","1","guessing.png","2","respond_yes.png","3","respond_no.png","4","Word 11 of 40","1","Image 2 of 5","1","hippopotamus","12"
"ACM1CEGHXTKZP","testBlock","centre_mouse","24","481","reveal","im0000063.jpg","N_1.png","1","N_2.png","2","N_3.png","3","N_4.png","4","Y_1.png","1","Y_2.png","2","Y_3.png","3","Y_4.png","4","confidence.png","1","guessing.png","2","respond_yes.png","3","respond_no.png","4","Word 11 of 40","1","Image 2 of 5","1","reveal.png","5"
"ACM1CEGHXTKZP","testBlock","absent_trial","25","973","no_3","im0000063.jpg","N_1.png","1","N_2.png","2","N_3.png","3","N_4.png","4","Y_1.png","1","Y_2.png","2","Y_3.png","3","Y_4.png","4","confidence.png","1","guessing.png","2","respond_yes.png","3","respond_no.png","4","Word 12 of 40","1","Image 2 of 5","1","clothe","10"
"ACM1CEGHXTKZP","testBlock","centre_mouse","26","236","reveal","im0000063.jpg","N_1.png","1","N_2.png","2","N_3.png","3","N_4.png","4","Y_1.png","1","Y_2.png","2","Y_3.png","3","Y_4.png","4","confidence.png","1","guessing.png","2","respond_yes.png","3","respond_no.png","4","Word 12 of 40","1","Image 2 of 5","1","reveal.png","5"
"ACM1CEGHXTKZP","testBlock","present_trial","27","1162","yes_3","im0000063.jpg","N_1.png","1","N_2.png","2","N_3.png","3","N_4.png","4","Y_1.png","1","Y_2.png","2","Y_3.png","3","Y_4.png","4","confidence.png","1","guessing.png","2","respond_yes.png","3","respond_no.png","4","Word 13 of 40","1","Image 2 of 5","1","blue-sky","15"
"ACM1CEGHXTKZP","testBlock","centre_mouse","28","396","reveal","im0000063.jpg","N_1.png","1","N_2.png","2","N_3.png","3","N_4.png","4","Y_1.png","1","Y_2.png","2","Y_3.png","3","Y_4.png","4","confidence.png","1","guessing.png","2","respond_yes.png","3","respond_no.png","4","Word 13 of 40","1","Image 2 of 5","1","reveal.png","5"
"ACM1CEGHXTKZP","testBlock","present_trial","29","1425","no_4","im0000063.jpg","N_1.png","1","N_2.png","2","N_3.png","3","N_4.png","4","Y_1.png","1","Y_2.png","2","Y_3.png","3","Y_4.png","4","confidence.png","1","guessing.png","2","respond_yes.png","3","respond_no.png","4","Word 14 of 40","1","Image 2 of 5","1","rhino","6"
"ACM1CEGHXTKZP","testBlock","centre_mouse","30","461","reveal","im0000063.jpg","N_1.png","1","N_2.png","2","N_3.png","3","N_4.png","4","Y_1.png","1","Y_2.png","2","Y_3.png","3","Y_4.png","4","confidence.png","1","guessing.png","2","respond_yes.png","3","respond_no.png","4","Word 14 of 40","1","Image 2 of 5","1","reveal.png","5"
"ACM1CEGHXTKZP","testBlock","present_trial","31","1678","no_1","im0000063.jpg","N_1.png","1","N_2.png","2","N_3.png","3","N_4.png","4","Y_1.png","1","Y_2.png","2","Y_3.png","3","Y_4.png","4","confidence.png","1","guessing.png","2","respond_yes.png","3","respond_no.png","4","Word 15 of 40","1","Image 2 of 5","1","mom","13"
"ACM1CEGHXTKZP","testBlock","centre_mouse","32","482","reveal","im0000063.jpg","N_1.png","1","N_2.png","2","N_3.png","3","N_4.png","4","Y_1.png","1","Y_2.png","2","Y_3.png","3","Y_4.png","4","confidence.png","1","guessing.png","2","respond_yes.png","3","respond_no.png","4","Word 15 of 40","1","Image 2 of 5","1","reveal.png","5"
"ACM1CEGHXTKZP","testBlock","present_trial","33","1487","yes_4","im0000063.jpg","N_1.png","1","N_2.png","2","N_3.png","3","N_4.png","4","Y_1.png","1","Y_2.png","2","Y_3.png","3","Y_4.png","4","confidence.png","1","guessing.png","2","respond_yes.png","3","respond_no.png","4","Word 16 of 40","1","Image 2 of 5","1","river","10"
"ACM1CEGHXTKZP","testBlock","centre_mouse","34","235","reveal","im0000063.jpg","N_1.png","1","N_2.png","2","N_3.png","3","N_4.png","4","Y_1.png","1","Y_2.png","2","Y_3.png","3","Y_4.png","4","confidence.png","1","guessing.png","2","respond_yes.png","3","respond_no.png","4","Word 16 of 40","1","Image 2 of 5","1","reveal.png","5"
"ACM1CEGHXTKZP","testBlock","present_trial","35","1494","yes_2","im0000063.jpg","N_1.png","1","N_2.png","2","N_3.png","3","N_4.png","4","Y_1.png","1","Y_2.png","2","Y_3.png","3","Y_4.png","4","confidence.png","1","guessing.png","2","respond_yes.png","3","respond_no.png","4","Word 17 of 40","1","Image 2 of 5","1","family","8"
"ACM1CEGHXTKZP","testBlock","centre_mouse","36","632","reveal","im0000063.jpg","N_1.png","1","N_2.png","2","N_3.png","3","N_4.png","4","Y_1.png","1","Y_2.png","2","Y_3.png","3","Y_4.png","4","confidence.png","1","guessing.png","2","respond_yes.png","3","respond_no.png","4","Word 17 of 40","1","Image 2 of 5","1","reveal.png","5"
"ACM1CEGHXTKZP","testBlock","absent_trial","37","976","no_4","im0000063.jpg","N_1.png","1","N_2.png","2","N_3.png","3","N_4.png","4","Y_1.png","1","Y_2.png","2","Y_3.png","3","Y_4.png","4","confidence.png","1","guessing.png","2","respond_yes.png","3","respond_no.png","4","Word 18 of 40","1","Image 2 of 5","1","accident","33"
"ACM1CEGHXTKZP","testBlock","centre_mouse","38","487","reveal","im0000063.jpg","N_1.png","1","N_2.png","2","N_3.png","3","N_4.png","4","Y_1.png","1","Y_2.png","2","Y_3.png","3","Y_4.png","4","confidence.png","1","guessing.png","2","respond_yes.png","3","respond_no.png","4","Word 18 of 40","1","Image 2 of 5","1","reveal.png","5"
"ACM1CEGHXTKZP","testBlock","catch_present_trial","39","2659","yes_1","im0000063.jpg","N_1.png","1","N_2.png","2","N_3.png","3","N_4.png","4","Y_1.png","1","Y_2.png","2","Y_3.png","3","Y_4.png","4","confidence.png","1","guessing.png","2","respond_yes.png","3","respond_no.png","4","Word 18 of 40","1","Image 2 of 5","1","PRESS: Yes 1","1"
"ACM1CEGHXTKZP","testBlock","centre_mouse","40","387","reveal","im0000063.jpg","N_1.png","1","N_2.png","2","N_3.png","3","N_4.png","4","Y_1.png","1","Y_2.png","2","Y_3.png","3","Y_4.png","4","confidence.png","1","guessing.png","2","respond_yes.png","3","respond_no.png","4","Word 18 of 40","1","Image 2 of 5","1","reveal.png","5"
"ACM1CEGHXTKZP","testBlock","present_trial","41","5142","no_3","im0000063.jpg","N_1.png","1","N_2.png","2","N_3.png","3","N_4.png","4","Y_1.png","1","Y_2.png","2","Y_3.png","3","Y_4.png","4","confidence.png","1","guessing.png","2","respond_yes.png","3","respond_no.png","4","Word 19 of 40","1","Image 2 of 5","1","dirt","9"
"ACM1CEGHXTKZP","testBlock","centre_mouse","42","452","reveal","im0000063.jpg","N_1.png","1","N_2.png","2","N_3.png","3","N_4.png","4","Y_1.png","1","Y_2.png","2","Y_3.png","3","Y_4.png","4","confidence.png","1","guessing.png","2","respond_yes.png","3","respond_no.png","4","Word 19 of 40","1","Image 2 of 5","1","reveal.png","5"
"ACM1CEGHXTKZP","testBlock","present_trial","43","1655","no_4","im0000063.jpg","N_1.png","1","N_2.png","2","N_3.png","3","N_4.png","4","Y_1.png","1","Y_2.png","2","Y_3.png","3","Y_4.png","4","confidence.png","1","guessing.png","2","respond_yes.png","3","respond_no.png","4","Word 20 of 40","1","Image 2 of 5","1","bath","18"
"ACM1CEGHXTKZP","testBlock","centre_mouse","44","233","reveal","im0000063.jpg","N_1.png","1","N_2.png","2","N_3.png","3","N_4.png","4","Y_1.png","1","Y_2.png","2","Y_3.png","3","Y_4.png","4","confidence.png","1","guessing.png","2","respond_yes.png","3","respond_no.png","4","Word 20 of 40","1","Image 2 of 5","1","reveal.png","5"
"ACM1CEGHXTKZP","testBlock","present_trial","45","1320","no_2","im0000063.jpg","N_1.png","1","N_2.png","2","N_3.png","3","N_4.png","4","Y_1.png","1","Y_2.png","2","Y_3.png","3","Y_4.png","4","confidence.png","1","guessing.png","2","respond_yes.png","3","respond_no.png","4","Word 21 of 40","1","Image 2 of 5","1","cute","11"
"ACM1CEGHXTKZP","testBlock","centre_mouse","46","222","reveal","im0000063.jpg","N_1.png","1","N_2.png","2","N_3.png","3","N_4.png","4","Y_1.png","1","Y_2.png","2","Y_3.png","3","Y_4.png","4","confidence.png","1","guessing.png","2","respond_yes.png","3","respond_no.png","4","Word 21 of 40","1","Image 2 of 5","1","reveal.png","5"
"ACM1CEGHXTKZP","testBlock","absent_trial","47","950","no_4","im0000063.jpg","N_1.png","1","N_2.png","2","N_3.png","3","N_4.png","4","Y_1.png","1","Y_2.png","2","Y_3.png","3","Y_4.png","4","confidence.png","1","guessing.png","2","respond_yes.png","3","respond_no.png","4","Word 22 of 40","1","Image 2 of 5","1","apple","23"
"ACM1CEGHXTKZP","testBlock","centre_mouse","48","516","reveal","im0000063.jpg","N_1.png","1","N_2.png","2","N_3.png","3","N_4.png","4","Y_1.png","1","Y_2.png","2","Y_3.png","3","Y_4.png","4","confidence.png","1","guessing.png","2","respond_yes.png","3","respond_no.png","4","Word 22 of 40","1","Image 2 of 5","1","reveal.png","5"
"ACM1CEGHXTKZP","testBlock","absent_trial","49","603","no_4","im0000063.jpg","N_1.png","1","N_2.png","2","N_3.png","3","N_4.png","4","Y_1.png","1","Y_2.png","2","Y_3.png","3","Y_4.png","4","confidence.png","1","guessing.png","2","respond_yes.png","3","respond_no.png","4","Word 23 of 40","1","Image 2 of 5","1","ball","18"
"ACM1CEGHXTKZP","testBlock","centre_mouse","50","500","reveal","im0000063.jpg","N_1.png","1","N_2.png","2","N_3.png","3","N_4.png","4","Y_1.png","1","Y_2.png","2","Y_3.png","3","Y_4.png","4","confidence.png","1","guessing.png","2","respond_yes.png","3","respond_no.png","4","Word 23 of 40","1","Image 2 of 5","1","reveal.png","5"
"ACM1CEGHXTKZP","testBlock","present_trial","51","2020","yes_3","im0000063.jpg","N_1.png","1","N_2.png","2","N_3.png","3","N_4.png","4","Y_1.png","1","Y_2.png","2","Y_3.png","3","Y_4.png","4","confidence.png","1","guessing.png","2","respond_yes.png","3","respond_no.png","4","Word 24 of 40","1","Image 2 of 5","1","africa","5"
"ACM1CEGHXTKZP","testBlock","centre_mouse","52","370","reveal","im0000063.jpg","N_1.png","1","N_2.png","2","N_3.png","3","N_4.png","4","Y_1.png","1","Y_2.png","2","Y_3.png","3","Y_4.png","4","confidence.png","1","guessing.png","2","respond_yes.png","3","respond_no.png","4","Word 24 of 40","1","Image 2 of 5","1","reveal.png","5"
"ACM1CEGHXTKZP","testBlock","absent_trial","53","999","no_4","im0000063.jpg","N_1.png","1","N_2.png","2","N_3.png","3","N_4.png","4","Y_1.png","1","Y_2.png","2","Y_3.png","3","Y_4.png","4","confidence.png","1","guessing.png","2","respond_yes.png","3","respond_no.png","4","Word 25 of 40","1","Image 2 of 5","1","small-stucture","6"
"ACM1CEGHXTKZP","testBlock","centre_mouse","54","242","reveal","im0000063.jpg","N_1.png","1","N_2.png","2","N_3.png","3","N_4.png","4","Y_1.png","1","Y_2.png","2","Y_3.png","3","Y_4.png","4","confidence.png","1","guessing.png","2","respond_yes.png","3","respond_no.png","4","Word 25 of 40","1","Image 2 of 5","1","reveal.png","5"
"ACM1CEGHXTKZP","testBlock","absent_trial","55","693","no_4","im0000063.jpg","N_1.png","1","N_2.png","2","N_3.png","3","N_4.png","4","Y_1.png","1","Y_2.png","2","Y_3.png","3","Y_4.png","4","confidence.png","1","guessing.png","2","respond_yes.png","3","respond_no.png","4","Word 26 of 40","1","Image 2 of 5","1","public-place","29"
"ACM1CEGHXTKZP","testBlock","centre_mouse","56","337","reveal","im0000063.jpg","N_1.png","1","N_2.png","2","N_3.png","3","N_4.png","4","Y_1.png","1","Y_2.png","2","Y_3.png","3","Y_4.png","4","confidence.png","1","guessing.png","2","respond_yes.png","3","respond_no.png","4","Word 26 of 40","1","Image 2 of 5","1","reveal.png","5"
"ACM1CEGHXTKZP","testBlock","catch_present_trial","57","1051","no_1","im0000063.jpg","N_1.png","1","N_2.png","2","N_3.png","3","N_4.png","4","Y_1.png","1","Y_2.png","2","Y_3.png","3","Y_4.png","4","confidence.png","1","guessing.png","2","respond_yes.png","3","respond_no.png","4","Word 26 of 40","1","Image 2 of 5","1","PRESS: Yes 1","1"
"ACM1CEGHXTKZP","testBlock","centre_mouse","58","323","reveal","im0000063.jpg","N_1.png","1","N_2.png","2","N_3.png","3","N_4.png","4","Y_1.png","1","Y_2.png","2","Y_3.png","3","Y_4.png","4","confidence.png","1","guessing.png","2","respond_yes.png","3","respond_no.png","4","Word 26 of 40","1","Image 2 of 5","1","reveal.png","5"
"ACM1CEGHXTKZP","testBlock","present_trial","59","868","yes_4","im0000063.jpg","N_1.png","1","N_2.png","2","N_3.png","3","N_4.png","4","Y_1.png","1","Y_2.png","2","Y_3.png","3","Y_4.png","4","confidence.png","1","guessing.png","2","respond_yes.png","3","respond_no.png","4","Word 27 of 40","1","Image 2 of 5","1","animal","7"
"ACM1CEGHXTKZP","testBlock","centre_mouse","60","223","reveal","im0000063.jpg","N_1.png","1","N_2.png","2","N_3.png","3","N_4.png","4","Y_1.png","1","Y_2.png","2","Y_3.png","3","Y_4.png","4","confidence.png","1","guessing.png","2","respond_yes.png","3","respond_no.png","4","Word 27 of 40","1","Image 2 of 5","1","reveal.png","5"
"ACM1CEGHXTKZP","testBlock","present_trial","61","807","yes_4","im0000063.jpg","N_1.png","1","N_2.png","2","N_3.png","3","N_4.png","4","Y_1.png","1","Y_2.png","2","Y_3.png","3","Y_4.png","4","confidence.png","1","guessing.png","2","respond_yes.png","3","respond_no.png","4","Word 28 of 40","1","Image 2 of 5","1","nature","14"
"ACM1CEGHXTKZP","testBlock","centre_mouse","62","255","reveal","im0000063.jpg","N_1.png","1","N_2.png","2","N_3.png","3","N_4.png","4","Y_1.png","1","Y_2.png","2","Y_3.png","3","Y_4.png","4","confidence.png","1","guessing.png","2","respond_yes.png","3","respond_no.png","4","Word 28 of 40","1","Image 2 of 5","1","reveal.png","5"
"ACM1CEGHXTKZP","testBlock","absent_trial","63","696","yes_4","im0000063.jpg","N_1.png","1","N_2.png","2","N_3.png","3","N_4.png","4","Y_1.png","1","Y_2.png","2","Y_3.png","3","Y_4.png","4","confidence.png","1","guessing.png","2","respond_yes.png","3","respond_no.png","4","Word 29 of 40","1","Image 2 of 5","1","life","4"
"ACM1CEGHXTKZP","testBlock","centre_mouse","64","187","reveal","im0000063.jpg","N_1.png","1","N_2.png","2","N_3.png","3","N_4.png","4","Y_1.png","1","Y_2.png","2","Y_3.png","3","Y_4.png","4","confidence.png","1","guessing.png","2","respond_yes.png","3","respond_no.png","4","Word 29 of 40","1","Image 2 of 5","1","reveal.png","5"
"ACM1CEGHXTKZP","testBlock","present_trial","65","1311","no_4","im0000063.jpg","N_1.png","1","N_2.png","2","N_3.png","3","N_4.png","4","Y_1.png","1","Y_2.png","2","Y_3.png","3","Y_4.png","4","confidence.png","1","guessing.png","2","respond_yes.png","3","respond_no.png","4","Word 30 of 40","1","Image 2 of 5","1","rhinoceros","20"
"ACM1CEGHXTKZP","testBlock","centre_mouse","66","438","reveal","im0000063.jpg","N_1.png","1","N_2.png","2","N_3.png","3","N_4.png","4","Y_1.png","1","Y_2.png","2","Y_3.png","3","Y_4.png","4","confidence.png","1","guessing.png","2","respond_yes.png","3","respond_no.png","4","Word 30 of 40","1","Image 2 of 5","1","reveal.png","5"
"ACM1CEGHXTKZP","testBlock","absent_trial","67","1341","no_4","im0000063.jpg","N_1.png","1","N_2.png","2","N_3.png","3","N_4.png","4","Y_1.png","1","Y_2.png","2","Y_3.png","3","Y_4.png","4","confidence.png","1","guessing.png","2","respond_yes.png","3","respond_no.png","4","Word 31 of 40","1","Image 2 of 5","1","coastline","17"
"ACM1CEGHXTKZP","testBlock","centre_mouse","68","611","reveal","im0000063.jpg","N_1.png","1","N_2.png","2","N_3.png","3","N_4.png","4","Y_1.png","1","Y_2.png","2","Y_3.png","3","Y_4.png","4","confidence.png","1","guessing.png","2","respond_yes.png","3","respond_no.png","4","Word 31 of 40","1","Image 2 of 5","1","reveal.png","5"
"ACM1CEGHXTKZP","testBlock","absent_trial","69","1084","yes_4","im0000063.jpg","N_1.png","1","N_2.png","2","N_3.png","3","N_4.png","4","Y_1.png","1","Y_2.png","2","Y_3.png","3","Y_4.png","4","confidence.png","1","guessing.png","2","respond_yes.png","3","respond_no.png","4","Word 32 of 40","1","Image 2 of 5","1","wonderful","2"
"ACM1CEGHXTKZP","testBlock","centre_mouse","70","515","reveal","im0000063.jpg","N_1.png","1","N_2.png","2","N_3.png","3","N_4.png","4","Y_1.png","1","Y_2.png","2","Y_3.png","3","Y_4.png","4","confidence.png","1","guessing.png","2","respond_yes.png","3","respond_no.png","4","Word 32 of 40","1","Image 2 of 5","1","reveal.png","5"
"ACM1CEGHXTKZP","testBlock","absent_trial","71","2176","no_4","im0000063.jpg","N_1.png","1","N_2.png","2","N_3.png","3","N_4.png","4","Y_1.png","1","Y_2.png","2","Y_3.png","3","Y_4.png","4","confidence.png","1","guessing.png","2","respond_yes.png","3","respond_no.png","4","Word 33 of 40","1","Image 2 of 5","1","woman","35"
"ACM1CEGHXTKZP","testBlock","centre_mouse","72","219","reveal","im0000063.jpg","N_1.png","1","N_2.png","2","N_3.png","3","N_4.png","4","Y_1.png","1","Y_2.png","2","Y_3.png","3","Y_4.png","4","confidence.png","1","guessing.png","2","respond_yes.png","3","respond_no.png","4","Word 33 of 40","1","Image 2 of 5","1","reveal.png","5"
"ACM1CEGHXTKZP","testBlock","absent_trial","73","1393","no_4","im0000063.jpg","N_1.png","1","N_2.png","2","N_3.png","3","N_4.png","4","Y_1.png","1","Y_2.png","2","Y_3.png","3","Y_4.png","4","confidence.png","1","guessing.png","2","respond_yes.png","3","respond_no.png","4","Word 34 of 40","1","Image 2 of 5","1","rose-ball","20"
"ACM1CEGHXTKZP","testBlock","centre_mouse","74","281","reveal","im0000063.jpg","N_1.png","1","N_2.png","2","N_3.png","3","N_4.png","4","Y_1.png","1","Y_2.png","2","Y_3.png","3","Y_4.png","4","confidence.png","1","guessing.png","2","respond_yes.png","3","respond_no.png","4","Word 34 of 40","1","Image 2 of 5","1","reveal.png","5"
"ACM1CEGHXTKZP","testBlock","present_trial","75","1465","no_4","im0000063.jpg","N_1.png","1","N_2.png","2","N_3.png","3","N_4.png","4","Y_1.png","1","Y_2.png","2","Y_3.png","3","Y_4.png","4","confidence.png","1","guessing.png","2","respond_yes.png","3","respond_no.png","4","Word 35 of 40","1","Image 2 of 5","1","grey","16"
"ACM1CEGHXTKZP","testBlock","centre_mouse","76","180","reveal","im0000063.jpg","N_1.png","1","N_2.png","2","N_3.png","3","N_4.png","4","Y_1.png","1","Y_2.png","2","Y_3.png","3","Y_4.png","4","confidence.png","1","guessing.png","2","respond_yes.png","3","respond_no.png","4","Word 35 of 40","1","Image 2 of 5","1","reveal.png","5"
"ACM1CEGHXTKZP","testBlock","present_trial","77","948","yes_4","im0000063.jpg","N_1.png","1","N_2.png","2","N_3.png","3","N_4.png","4","Y_1.png","1","Y_2.png","2","Y_3.png","3","Y_4.png","4","confidence.png","1","guessing.png","2","respond_yes.png","3","respond_no.png","4","Word 36 of 40","1","Image 2 of 5","1","two","4"
"ACM1CEGHXTKZP","testBlock","centre_mouse","78","450","reveal","im0000063.jpg","N_1.png","1","N_2.png","2","N_3.png","3","N_4.png","4","Y_1.png","1","Y_2.png","2","Y_3.png","3","Y_4.png","4","confidence.png","1","guessing.png","2","respond_yes.png","3","respond_no.png","4","Word 36 of 40","1","Image 2 of 5","1","reveal.png","5"
"ACM1CEGHXTKZP","testBlock","absent_trial","79","2352","no_3","im0000063.jpg","N_1.png","1","N_2.png","2","N_3.png","3","N_4.png","4","Y_1.png","1","Y_2.png","2","Y_3.png","3","Y_4.png","4","confidence.png","1","guessing.png","2","respond_yes.png","3","respond_no.png","4","Word 37 of 40","1","Image 2 of 5","1","sound","14"
"ACM1CEGHXTKZP","testBlock","centre_mouse","80","244","reveal","im0000063.jpg","N_1.png","1","N_2.png","2","N_3.png","3","N_4.png","4","Y_1.png","1","Y_2.png","2","Y_3.png","3","Y_4.png","4","confidence.png","1","guessing.png","2","respond_yes.png","3","respond_no.png","4","Word 37 of 40","1","Image 2 of 5","1","reveal.png","5"
"ACM1CEGHXTKZP","testBlock","present_trial","81","1534","no_4","im0000063.jpg","N_1.png","1","N_2.png","2","N_3.png","3","N_4.png","4","Y_1.png","1","Y_2.png","2","Y_3.png","3","Y_4.png","4","confidence.png","1","guessing.png","2","respond_yes.png","3","respond_no.png","4","Word 38 of 40","1","Image 2 of 5","1","lake","19"
"ACM1CEGHXTKZP","testBlock","centre_mouse","82","247","reveal","im0000063.jpg","N_1.png","1","N_2.png","2","N_3.png","3","N_4.png","4","Y_1.png","1","Y_2.png","2","Y_3.png","3","Y_4.png","4","confidence.png","1","guessing.png","2","respond_yes.png","3","respond_no.png","4","Word 38 of 40","1","Image 2 of 5","1","reveal.png","5"
"ACM1CEGHXTKZP","testBlock","present_trial","83","4873","no_2","im0000063.jpg","N_1.png","1","N_2.png","2","N_3.png","3","N_4.png","4","Y_1.png","1","Y_2.png","2","Y_3.png","3","Y_4.png","4","confidence.png","1","guessing.png","2","respond_yes.png","3","respond_no.png","4","Word 39 of 40","1","Image 2 of 5","1","touch","17"
"ACM1CEGHXTKZP","testBlock","centre_mouse","84","396","reveal","im0000063.jpg","N_1.png","1","N_2.png","2","N_3.png","3","N_4.png","4","Y_1.png","1","Y_2.png","2","Y_3.png","3","Y_4.png","4","confidence.png","1","guessing.png","2","respond_yes.png","3","respond_no.png","4","Word 39 of 40","1","Image 2 of 5","1","reveal.png","5"
"ACM1CEGHXTKZP","testBlock","absent_trial","85","738","yes_4","im0000063.jpg","N_1.png","1","N_2.png","2","N_3.png","3","N_4.png","4","Y_1.png","1","Y_2.png","2","Y_3.png","3","Y_4.png","4","confidence.png","1","guessing.png","2","respond_yes.png","3","respond_no.png","4","Word 40 of 40","1","Image 2 of 5","1","river","3"
"ACM1CEGHXTKZP","testBlock","centre_mouse","86","760","reveal","im0000063.jpg","N_1.png","1","N_2.png","2","N_3.png","3","N_4.png","4","Y_1.png","1","Y_2.png","2","Y_3.png","3","Y_4.png","4","confidence.png","1","guessing.png","2","respond_yes.png","3","respond_no.png","4","Word 40 of 40","1","Image 2 of 5","1","reveal.png","5"
"ACM1CEGHXTKZP","testBlock","test","1","0","0","im0000063.jpg","+","1","im0000041.jpg","1","mask1.jpg","1","mask1.jpg","1","mask1.jpg","1","mask4.jpg","4","mask2.jpg","2","0","0","0","0","0","0","0","0","0","0","0","0","0","0","0","0"
"ACM1CEGHXTKZP","testBlock","centre_mouse","2","1708","reveal","im0000063.jpg","N_1.png","1","N_2.png","2","N_3.png","3","N_4.png","4","Y_1.png","1","Y_2.png","2","Y_3.png","3","Y_4.png","4","confidence.png","1","guessing.png","2","respond_yes.png","3","respond_no.png","4","Word 0 of 40","1","Image 3 of 5","1","reveal.png","5"
"ACM1CEGHXTKZP","testBlock","present_trial","3","1487","no_4","im0000041.jpg","N_1.png","1","N_2.png","2","N_3.png","3","N_4.png","4","Y_1.png","1","Y_2.png","2","Y_3.png","3","Y_4.png","4","confidence.png","1","guessing.png","2","respond_yes.png","3","respond_no.png","4","Word 1 of 40","1","Image 3 of 5","1","run","13"
"ACM1CEGHXTKZP","testBlock","centre_mouse","4","828","reveal","im0000041.jpg","N_1.png","1","N_2.png","2","N_3.png","3","N_4.png","4","Y_1.png","1","Y_2.png","2","Y_3.png","3","Y_4.png","4","confidence.png","1","guessing.png","2","respond_yes.png","3","respond_no.png","4","Word 1 of 40","1","Image 3 of 5","1","reveal.png","5"
"ACM1CEGHXTKZP","testBlock","absent_trial","5","938","no_4","im0000041.jpg","N_1.png","1","N_2.png","2","N_3.png","3","N_4.png","4","Y_1.png","1","Y_2.png","2","Y_3.png","3","Y_4.png","4","confidence.png","1","guessing.png","2","respond_yes.png","3","respond_no.png","4","Word 2 of 40","1","Image 3 of 5","1","crow","2"
"ACM1CEGHXTKZP","testBlock","centre_mouse","6","473","reveal","im0000041.jpg","N_1.png","1","N_2.png","2","N_3.png","3","N_4.png","4","Y_1.png","1","Y_2.png","2","Y_3.png","3","Y_4.png","4","confidence.png","1","guessing.png","2","respond_yes.png","3","respond_no.png","4","Word 2 of 40","1","Image 3 of 5","1","reveal.png","5"
"ACM1CEGHXTKZP","testBlock","absent_trial","7","1302","no_2","im0000041.jpg","N_1.png","1","N_2.png","2","N_3.png","3","N_4.png","4","Y_1.png","1","Y_2.png","2","Y_3.png","3","Y_4.png","4","confidence.png","1","guessing.png","2","respond_yes.png","3","respond_no.png","4","Word 3 of 40","1","Image 3 of 5","1","platter","16"
