"subject","blockcode","trialcode","trialnum","latency","response","values.imageName","stimulusitem1","stimulusnumber1","stimulusitem2","stimulusnumber2","stimulusitem3","stimulusnumber3","stimulusitem4","stimulusnumber4","stimulusitem5","stimulusnumber5","stimulusitem6","stimulusnumber6","stimulusitem7","stimulusnumber7","stimulusitem8","stimulusnumber8","stimulusitem9","stimulusnumber9","stimulusitem10","stimulusnumber10","stimulusitem11","stimulusnumber11","stimulusitem12","stimulusnumber12","stimulusitem13","stimulusnumber13","stimulusitem14","stimulusnumber14","stimulusitem15","stimulusnumber15"
"A222R4PNCF08OF","practiceBlock","practice","1","1","0","Picture1.jpg","+","1","Picture1.jpg","1","mask5.jpg","5","mask3.jpg","3","mask1.jpg","1","mask2.jpg","2","mask5.jpg","5","0","0","0","0","0","0","0","0","0","0","0","0","0","0","0","0"
"A222R4PNCF08OF","practiceBlock","centre_mouse","2","5207","reveal","Picture1.jpg","N_1.png","1","N_2.png","2","N_3.png","3","N_4.png","4","Y_1.png","1","Y_2.png","2","Y_3.png","3","Y_4.png","4","confidence.png","1","guessing.png","2","respond_yes.png","3","respond_no.png","4","Word 0 of 12","1","Image 1 of 3","1","reveal.png","5"
"A222R4PNCF08OF","practiceBlock","practice_absent_trial","3","4014","no_4","Picture1.jpg","N_1.png","1","N_2.png","2","N_3.png","3","N_4.png","4","Y_1.png","1","Y_2.png","2","Y_3.png","3","Y_4.png","4","confidence.png","1","guessing.png","2","respond_yes.png","3","respond_no.png","4","Word 1 of 12","1","Image 1 of 3","1","crow","2"
"A222R4PNCF08OF","practiceBlock","centre_mouse","4","1218","reveal","Picture1.jpg","N_1.png","1","N_2.png","2","N_3.png","3","N_4.png","4","Y_1.png","1","Y_2.png","2","Y_3.png","3","Y_4.png","4","confidence.png","1","guessing.png","2","respond_yes.png","3","respond_no.png","4","Word 1 of 12","1","Image 1 of 3","1","reveal.png","5"
"A222R4PNCF08OF","practiceBlock","practice_absent_trial","5","3078","no_2","Picture1.jpg","N_1.png","1","N_2.png","2","N_3.png","3","N_4.png","4","Y_1.png","1","Y_2.png","2","Y_3.png","3","Y_4.png","4","confidence.png","1","guessing.png","2","respond_yes.png","3","respond_no.png","4","Word 2 of 12","1","Image 1 of 3","1","line","6"
"A222R4PNCF08OF","practiceBlock","centre_mouse","6","960","reveal","Picture1.jpg","N_1.png","1","N_2.png","2","N_3.png","3","N_4.png","4","Y_1.png","1","Y_2.png","2","Y_3.png","3","Y_4.png","4","confidence.png","1","guessing.png","2","respond_yes.png","3","respond_no.png","4","Word 2 of 12","1","Image 1 of 3","1","reveal.png","5"
"A222R4PNCF08OF","practiceBlock","practice_present_trial","7","2789","no_1","Picture1.jpg","N_1.png","1","N_2.png","2","N_3.png","3","N_4.png","4","Y_1.png","1","Y_2.png","2","Y_3.png","3","Y_4.png","4","confidence.png","1","guessing.png","2","respond_yes.png","3","respond_no.png","4","Word 3 of 12","1","Image 1 of 3","1","black","4"
"A222R4PNCF08OF","practiceBlock","centre_mouse","8","2297","reveal","Picture1.jpg","N_1.png","1","N_2.png","2","N_3.png","3","N_4.png","4","Y_1.png","1","Y_2.png","2","Y_3.png","3","Y_4.png","4","confidence.png","1","guessing.png","2","respond_yes.png","3","respond_no.png","4","Word 3 of 12","1","Image 1 of 3","1","reveal.png","5"
"A222R4PNCF08OF","practiceBlock","practice_absent_trial","9","986","no_1","Picture1.jpg","N_1.png","1","N_2.png","2","N_3.png","3","N_4.png","4","Y_1.png","1","Y_2.png","2","Y_3.png","3","Y_4.png","4","confidence.png","1","guessing.png","2","respond_yes.png","3","respond_no.png","4","Word 4 of 12","1","Image 1 of 3","1","blanket","1"
"A222R4PNCF08OF","practiceBlock","centre_mouse","10","1065","reveal","Picture1.jpg","N_1.png","1","N_2.png","2","N_3.png","3","N_4.png","4","Y_1.png","1","Y_2.png","2","Y_3.png","3","Y_4.png","4","confidence.png","1","guessing.png","2","respond_yes.png","3","respond_no.png","4","Word 4 of 12","1","Image 1 of 3","1","reveal.png","5"
"A222R4PNCF08OF","practiceBlock","practice_present_trial","11","3415","no_3","Picture1.jpg","N_1.png","1","N_2.png","2","N_3.png","3","N_4.png","4","Y_1.png","1","Y_2.png","2","Y_3.png","3","Y_4.png","4","confidence.png","1","guessing.png","2","respond_yes.png","3","respond_no.png","4","Word 5 of 12","1","Image 1 of 3","1","color","6"
"A222R4PNCF08OF","practiceBlock","centre_mouse","12","995","reveal","Picture1.jpg","N_1.png","1","N_2.png","2","N_3.png","3","N_4.png","4","Y_1.png","1","Y_2.png","2","Y_3.png","3","Y_4.png","4","confidence.png","1","guessing.png","2","respond_yes.png","3","respond_no.png","4","Word 5 of 12","1","Image 1 of 3","1","reveal.png","5"
"A222R4PNCF08OF","practiceBlock","practice_present_trial","13","1708","no_2","Picture1.jpg","N_1.png","1","N_2.png","2","N_3.png","3","N_4.png","4","Y_1.png","1","Y_2.png","2","Y_3.png","3","Y_4.png","4","confidence.png","1","guessing.png","2","respond_yes.png","3","respond_no.png","4","Word 6 of 12","1","Image 1 of 3","1","red","3"
"A222R4PNCF08OF","practiceBlock","centre_mouse","14","1549","reveal","Picture1.jpg","N_1.png","1","N_2.png","2","N_3.png","3","N_4.png","4","Y_1.png","1","Y_2.png","2","Y_3.png","3","Y_4.png","4","confidence.png","1","guessing.png","2","respond_yes.png","3","respond_no.png","4","Word 6 of 12","1","Image 1 of 3","1","reveal.png","5"
"A222R4PNCF08OF","practiceBlock","practice_absent_trial","15","941","no_1","Picture1.jpg","N_1.png","1","N_2.png","2","N_3.png","3","N_4.png","4","Y_1.png","1","Y_2.png","2","Y_3.png","3","Y_4.png","4","confidence.png","1","guessing.png","2","respond_yes.png","3","respond_no.png","4","Word 7 of 12","1","Image 1 of 3","1","dome","5"
"A222R4PNCF08OF","practiceBlock","centre_mouse","16","981","reveal","Picture1.jpg","N_1.png","1","N_2.png","2","N_3.png","3","N_4.png","4","Y_1.png","1","Y_2.png","2","Y_3.png","3","Y_4.png","4","confidence.png","1","guessing.png","2","respond_yes.png","3","respond_no.png","4","Word 7 of 12","1","Image 1 of 3","1","reveal.png","5"
"A222R4PNCF08OF","practiceBlock","practice_absent_trial","17","902","no_1","Picture1.jpg","N_1.png","1","N_2.png","2","N_3.png","3","N_4.png","4","Y_1.png","1","Y_2.png","2","Y_3.png","3","Y_4.png","4","confidence.png","1","guessing.png","2","respond_yes.png","3","respond_no.png","4","Word 8 of 12","1","Image 1 of 3","1","wall","3"
"A222R4PNCF08OF","practiceBlock","centre_mouse","18","1297","reveal","Picture1.jpg","N_1.png","1","N_2.png","2","N_3.png","3","N_4.png","4","Y_1.png","1","Y_2.png","2","Y_3.png","3","Y_4.png","4","confidence.png","1","guessing.png","2","respond_yes.png","3","respond_no.png","4","Word 8 of 12","1","Image 1 of 3","1","reveal.png","5"
"A222R4PNCF08OF","practiceBlock","practice_absent_trial","19","635","no_1","Picture1.jpg","N_1.png","1","N_2.png","2","N_3.png","3","N_4.png","4","Y_1.png","1","Y_2.png","2","Y_3.png","3","Y_4.png","4","confidence.png","1","guessing.png","2","respond_yes.png","3","respond_no.png","4","Word 9 of 12","1","Image 1 of 3","1","day","4"
"A222R4PNCF08OF","practiceBlock","centre_mouse","20","665","reveal","Picture1.jpg","N_1.png","1","N_2.png","2","N_3.png","3","N_4.png","4","Y_1.png","1","Y_2.png","2","Y_3.png","3","Y_4.png","4","confidence.png","1","guessing.png","2","respond_yes.png","3","respond_no.png","4","Word 9 of 12","1","Image 1 of 3","1","reveal.png","5"
"A222R4PNCF08OF","practiceBlock","practice_present_trial","21","1631","yes_4","Picture1.jpg","N_1.png","1","N_2.png","2","N_3.png","3","N_4.png","4","Y_1.png","1","Y_2.png","2","Y_3.png","3","Y_4.png","4","confidence.png","1","guessing.png","2","respond_yes.png","3","respond_no.png","4","Word 10 of 12","1","Image 1 of 3","1","heart","1"
"A222R4PNCF08OF","practiceBlock","centre_mouse","22","1053","reveal","Picture1.jpg","N_1.png","1","N_2.png","2","N_3.png","3","N_4.png","4","Y_1.png","1","Y_2.png","2","Y_3.png","3","Y_4.png","4","confidence.png","1","guessing.png","2","respond_yes.png","3","respond_no.png","4","Word 10 of 12","1","Image 1 of 3","1","reveal.png","5"
"A222R4PNCF08OF","practiceBlock","practice_present_trial","23","2310","yes_1","Picture1.jpg","N_1.png","1","N_2.png","2","N_3.png","3","N_4.png","4","Y_1.png","1","Y_2.png","2","Y_3.png","3","Y_4.png","4","confidence.png","1","guessing.png","2","respond_yes.png","3","respond_no.png","4","Word 11 of 12","1","Image 1 of 3","1","outline","5"
"A222R4PNCF08OF","practiceBlock","centre_mouse","24","833","reveal","Picture1.jpg","N_1.png","1","N_2.png","2","N_3.png","3","N_4.png","4","Y_1.png","1","Y_2.png","2","Y_3.png","3","Y_4.png","4","confidence.png","1","guessing.png","2","respond_yes.png","3","respond_no.png","4","Word 11 of 12","1","Image 1 of 3","1","reveal.png","5"
"A222R4PNCF08OF","practiceBlock","practice_present_trial","25","1208","yes_4","Picture1.jpg","N_1.png","1","N_2.png","2","N_3.png","3","N_4.png","4","Y_1.png","1","Y_2.png","2","Y_3.png","3","Y_4.png","4","confidence.png","1","guessing.png","2","respond_yes.png","3","respond_no.png","4","Word 12 of 12","1","Image 1 of 3","1","love","2"
"A222R4PNCF08OF","practiceBlock","centre_mouse","26","917","reveal","Picture1.jpg","N_1.png","1","N_2.png","2","N_3.png","3","N_4.png","4","Y_1.png","1","Y_2.png","2","Y_3.png","3","Y_4.png","4","confidence.png","1","guessing.png","2","respond_yes.png","3","respond_no.png","4","Word 12 of 12","1","Image 1 of 3","1","reveal.png","5"
"A222R4PNCF08OF","practiceBlock","catch_present_trial","27","3581","yes_2","Picture1.jpg","N_1.png","1","N_2.png","2","N_3.png","3","N_4.png","4","Y_1.png","1","Y_2.png","2","Y_3.png","3","Y_4.png","4","confidence.png","1","guessing.png","2","respond_yes.png","3","respond_no.png","4","Word 12 of 12","1","Image 1 of 3","1","PRESS: Yes 2","2"
"A222R4PNCF08OF","practiceBlock","centre_mouse","28","2356","reveal","Picture1.jpg","N_1.png","1","N_2.png","2","N_3.png","3","N_4.png","4","Y_1.png","1","Y_2.png","2","Y_3.png","3","Y_4.png","4","confidence.png","1","guessing.png","2","respond_yes.png","3","respond_no.png","4","Word 12 of 12","1","Image 1 of 3","1","reveal.png","5"
"A222R4PNCF08OF","practiceBlock","catch_absent_trial","29","3437","no_4","Picture1.jpg","N_1.png","1","N_2.png","2","N_3.png","3","N_4.png","4","Y_1.png","1","Y_2.png","2","Y_3.png","3","Y_4.png","4","confidence.png","1","guessing.png","2","respond_yes.png","3","respond_no.png","4","Word 12 of 12","1","Image 1 of 3","1","PRESS: No 4","4"
"A222R4PNCF08OF","practiceBlock","centre_mouse","30","979","reveal","Picture1.jpg","N_1.png","1","N_2.png","2","N_3.png","3","N_4.png","4","Y_1.png","1","Y_2.png","2","Y_3.png","3","Y_4.png","4","confidence.png","1","guessing.png","2","respond_yes.png","3","respond_no.png","4","Word 12 of 12","1","Image 1 of 3","1","reveal.png","5"
"A222R4PNCF08OF","practiceBlock","practice","1","1","0","Picture1.jpg","+","1","Picture3.jpg","3","mask2.jpg","2","mask2.jpg","2","mask4.jpg","4","mask4.jpg","4","mask4.jpg","4","0","0","0","0","0","0","0","0","0","0","0","0","0","0","0","0"
"A222R4PNCF08OF","practiceBlock","centre_mouse","2","1668","reveal","Picture1.jpg","N_1.png","1","N_2.png","2","N_3.png","3","N_4.png","4","Y_1.png","1","Y_2.png","2","Y_3.png","3","Y_4.png","4","confidence.png","1","guessing.png","2","respond_yes.png","3","respond_no.png","4","Word 0 of 12","1","Image 2 of 3","1","reveal.png","5"
"A222R4PNCF08OF","practiceBlock","practice_present_trial","3","1479","yes_4","Picture3.jpg","N_1.png","1","N_2.png","2","N_3.png","3","N_4.png","4","Y_1.png","1","Y_2.png","2","Y_3.png","3","Y_4.png","4","confidence.png","1","guessing.png","2","respond_yes.png","3","respond_no.png","4","Word 1 of 12","1","Image 2 of 3","1","cloud","3"
"A222R4PNCF08OF","practiceBlock","centre_mouse","4","869","reveal","Picture3.jpg","N_1.png","1","N_2.png","2","N_3.png","3","N_4.png","4","Y_1.png","1","Y_2.png","2","Y_3.png","3","Y_4.png","4","confidence.png","1","guessing.png","2","respond_yes.png","3","respond_no.png","4","Word 1 of 12","1","Image 2 of 3","1","reveal.png","5"
"A222R4PNCF08OF","practiceBlock","practice_absent_trial","5","1591","no_1","Picture3.jpg","N_1.png","1","N_2.png","2","N_3.png","3","N_4.png","4","Y_1.png","1","Y_2.png","2","Y_3.png","3","Y_4.png","4","confidence.png","1","guessing.png","2","respond_yes.png","3","respond_no.png","4","Word 2 of 12","1","Image 2 of 3","1","stand","5"
"A222R4PNCF08OF","practiceBlock","centre_mouse","6","870","reveal","Picture3.jpg","N_1.png","1","N_2.png","2","N_3.png","3","N_4.png","4","Y_1.png","1","Y_2.png","2","Y_3.png","3","Y_4.png","4","confidence.png","1","guessing.png","2","respond_yes.png","3","respond_no.png","4","Word 2 of 12","1","Image 2 of 3","1","reveal.png","5"
"A222R4PNCF08OF","practiceBlock","practice_present_trial","7","1152","yes_4","Picture3.jpg","N_1.png","1","N_2.png","2","N_3.png","3","N_4.png","4","Y_1.png","1","Y_2.png","2","Y_3.png","3","Y_4.png","4","confidence.png","1","guessing.png","2","respond_yes.png","3","respond_no.png","4","Word 3 of 12","1","Image 2 of 3","1","sun","2"
"A222R4PNCF08OF","practiceBlock","centre_mouse","8","810","reveal","Picture3.jpg","N_1.png","1","N_2.png","2","N_3.png","3","N_4.png","4","Y_1.png","1","Y_2.png","2","Y_3.png","3","Y_4.png","4","confidence.png","1","guessing.png","2","respond_yes.png","3","respond_no.png","4","Word 3 of 12","1","Image 2 of 3","1","reveal.png","5"
"A222R4PNCF08OF","practiceBlock","practice_present_trial","9","3709","no_4","Picture3.jpg","N_1.png","1","N_2.png","2","N_3.png","3","N_4.png","4","Y_1.png","1","Y_2.png","2","Y_3.png","3","Y_4.png","4","confidence.png","1","guessing.png","2","respond_yes.png","3","respond_no.png","4","Word 4 of 12","1","Image 2 of 3","1","mountain","1"
"A222R4PNCF08OF","practiceBlock","centre_mouse","10","863","reveal","Picture3.jpg","N_1.png","1","N_2.png","2","N_3.png","3","N_4.png","4","Y_1.png","1","Y_2.png","2","Y_3.png","3","Y_4.png","4","confidence.png","1","guessing.png","2","respond_yes.png","3","respond_no.png","4","Word 4 of 12","1","Image 2 of 3","1","reveal.png","5"
"A222R4PNCF08OF","practiceBlock","practice_absent_trial","11","1497","no_4","Picture3.jpg","N_1.png","1","N_2.png","2","N_3.png","3","N_4.png","4","Y_1.png","1","Y_2.png","2","Y_3.png","3","Y_4.png","4","confidence.png","1","guessing.png","2","respond_yes.png","3","respond_no.png","4","Word 5 of 12","1","Image 2 of 3","1","horse","2"
"A222R4PNCF08OF","practiceBlock","centre_mouse","12","595","reveal","Picture3.jpg","N_1.png","1","N_2.png","2","N_3.png","3","N_4.png","4","Y_1.png","1","Y_2.png","2","Y_3.png","3","Y_4.png","4","confidence.png","1","guessing.png","2","respond_yes.png","3","respond_no.png","4","Word 5 of 12","1","Image 2 of 3","1","reveal.png","5"
"A222R4PNCF08OF","practiceBlock","practice_absent_trial","13","1791","no_4","Picture3.jpg","N_1.png","1","N_2.png","2","N_3.png","3","N_4.png","4","Y_1.png","1","Y_2.png","2","Y_3.png","3","Y_4.png","4","confidence.png","1","guessing.png","2","respond_yes.png","3","respond_no.png","4","Word 6 of 12","1","Image 2 of 3","1","blue-hat","6"
"A222R4PNCF08OF","practiceBlock","centre_mouse","14","742","reveal","Picture3.jpg","N_1.png","1","N_2.png","2","N_3.png","3","N_4.png","4","Y_1.png","1","Y_2.png","2","Y_3.png","3","Y_4.png","4","confidence.png","1","guessing.png","2","respond_yes.png","3","respond_no.png","4","Word 6 of 12","1","Image 2 of 3","1","reveal.png","5"
"A222R4PNCF08OF","practiceBlock","practice_present_trial","15","2519","yes_3","Picture3.jpg","N_1.png","1","N_2.png","2","N_3.png","3","N_4.png","4","Y_1.png","1","Y_2.png","2","Y_3.png","3","Y_4.png","4","confidence.png","1","guessing.png","2","respond_yes.png","3","respond_no.png","4","Word 7 of 12","1","Image 2 of 3","1","landscape","4"
"A222R4PNCF08OF","practiceBlock","centre_mouse","16","978","reveal","Picture3.jpg","N_1.png","1","N_2.png","2","N_3.png","3","N_4.png","4","Y_1.png","1","Y_2.png","2","Y_3.png","3","Y_4.png","4","confidence.png","1","guessing.png","2","respond_yes.png","3","respond_no.png","4","Word 7 of 12","1","Image 2 of 3","1","reveal.png","5"
"A222R4PNCF08OF","practiceBlock","practice_absent_trial","17","1492","no_4","Picture3.jpg","N_1.png","1","N_2.png","2","N_3.png","3","N_4.png","4","Y_1.png","1","Y_2.png","2","Y_3.png","3","Y_4.png","4","confidence.png","1","guessing.png","2","respond_yes.png","3","respond_no.png","4","Word 8 of 12","1","Image 2 of 3","1","old","4"
"A222R4PNCF08OF","practiceBlock","centre_mouse","18","732","reveal","Picture3.jpg","N_1.png","1","N_2.png","2","N_3.png","3","N_4.png","4","Y_1.png","1","Y_2.png","2","Y_3.png","3","Y_4.png","4","confidence.png","1","guessing.png","2","respond_yes.png","3","respond_no.png","4","Word 8 of 12","1","Image 2 of 3","1","reveal.png","5"
"A222R4PNCF08OF","practiceBlock","practice_present_trial","19","1428","yes_3","Picture3.jpg","N_1.png","1","N_2.png","2","N_3.png","3","N_4.png","4","Y_1.png","1","Y_2.png","2","Y_3.png","3","Y_4.png","4","confidence.png","1","guessing.png","2","respond_yes.png","3","respond_no.png","4","Word 9 of 12","1","Image 2 of 3","1","blue","5"
"A222R4PNCF08OF","practiceBlock","centre_mouse","20","641","reveal","Picture3.jpg","N_1.png","1","N_2.png","2","N_3.png","3","N_4.png","4","Y_1.png","1","Y_2.png","2","Y_3.png","3","Y_4.png","4","confidence.png","1","guessing.png","2","respond_yes.png","3","respond_no.png","4","Word 9 of 12","1","Image 2 of 3","1","reveal.png","5"
"A222R4PNCF08OF","practiceBlock","practice_present_trial","21","918","yes_4","Picture3.jpg","N_1.png","1","N_2.png","2","N_3.png","3","N_4.png","4","Y_1.png","1","Y_2.png","2","Y_3.png","3","Y_4.png","4","confidence.png","1","guessing.png","2","respond_yes.png","3","respond_no.png","4","Word 10 of 12","1","Image 2 of 3","1","sky","6"
"A222R4PNCF08OF","practiceBlock","centre_mouse","22","864","reveal","Picture3.jpg","N_1.png","1","N_2.png","2","N_3.png","3","N_4.png","4","Y_1.png","1","Y_2.png","2","Y_3.png","3","Y_4.png","4","confidence.png","1","guessing.png","2","respond_yes.png","3","respond_no.png","4","Word 10 of 12","1","Image 2 of 3","1","reveal.png","5"
"A222R4PNCF08OF","practiceBlock","practice_absent_trial","23","4129","no_4","Picture3.jpg","N_1.png","1","N_2.png","2","N_3.png","3","N_4.png","4","Y_1.png","1","Y_2.png","2","Y_3.png","3","Y_4.png","4","confidence.png","1","guessing.png","2","respond_yes.png","3","respond_no.png","4","Word 11 of 12","1","Image 2 of 3","1","zoomed-in","1"
"A222R4PNCF08OF","practiceBlock","centre_mouse","24","757","reveal","Picture3.jpg","N_1.png","1","N_2.png","2","N_3.png","3","N_4.png","4","Y_1.png","1","Y_2.png","2","Y_3.png","3","Y_4.png","4","confidence.png","1","guessing.png","2","respond_yes.png","3","respond_no.png","4","Word 11 of 12","1","Image 2 of 3","1","reveal.png","5"
"A222R4PNCF08OF","practiceBlock","practice_absent_trial","25","4010","no_4","Picture3.jpg","N_1.png","1","N_2.png","2","N_3.png","3","N_4.png","4","Y_1.png","1","Y_2.png","2","Y_3.png","3","Y_4.png","4","confidence.png","1","guessing.png","2","respond_yes.png","3","respond_no.png","4","Word 12 of 12","1","Image 2 of 3","1","coat","3"
"A222R4PNCF08OF","practiceBlock","centre_mouse","26","704","reveal","Picture3.jpg","N_1.png","1","N_2.png","2","N_3.png","3","N_4.png","4","Y_1.png","1","Y_2.png","2","Y_3.png","3","Y_4.png","4","confidence.png","1","guessing.png","2","respond_yes.png","3","respond_no.png","4","Word 12 of 12","1","Image 2 of 3","1","reveal.png","5"
"A222R4PNCF08OF","practiceBlock","catch_present_trial","27","2997","yes_3","Picture3.jpg","N_1.png","1","N_2.png","2","N_3.png","3","N_4.png","4","Y_1.png","1","Y_2.png","2","Y_3.png","3","Y_4.png","4","confidence.png","1","guessing.png","2","respond_yes.png","3","respond_no.png","4","Word 12 of 12","1","Image 2 of 3","1","PRESS: Yes 3","3"
"A222R4PNCF08OF","practiceBlock","centre_mouse","28","1171","reveal","Picture3.jpg","N_1.png","1","N_2.png","2","N_3.png","3","N_4.png","4","Y_1.png","1","Y_2.png","2","Y_3.png","3","Y_4.png","4","confidence.png","1","guessing.png","2","respond_yes.png","3","respond_no.png","4","Word 12 of 12","1","Image 2 of 3","1","reveal.png","5"
"A222R4PNCF08OF","practiceBlock","catch_absent_trial","29","1374","no_3","Picture3.jpg","N_1.png","1","N_2.png","2","N_3.png","3","N_4.png","4","Y_1.png","1","Y_2.png","2","Y_3.png","3","Y_4.png","4","confidence.png","1","guessing.png","2","respond_yes.png","3","respond_no.png","4","Word 12 of 12","1","Image 2 of 3","1","PRESS: No 3","3"
"A222R4PNCF08OF","practiceBlock","centre_mouse","30","557","reveal","Picture3.jpg","N_1.png","1","N_2.png","2","N_3.png","3","N_4.png","4","Y_1.png","1","Y_2.png","2","Y_3.png","3","Y_4.png","4","confidence.png","1","guessing.png","2","respond_yes.png","3","respond_no.png","4","Word 12 of 12","1","Image 2 of 3","1","reveal.png","5"
"A222R4PNCF08OF","practiceBlock","practice","1","1","0","Picture3.jpg","+","1","Picture2.jpg","2","mask4.jpg","4","mask5.jpg","5","mask2.jpg","2","mask1.jpg","1","mask1.jpg","1","0","0","0","0","0","0","0","0","0","0","0","0","0","0","0","0"
"A222R4PNCF08OF","practiceBlock","centre_mouse","2","1022","reveal","Picture3.jpg","N_1.png","1","N_2.png","2","N_3.png","3","N_4.png","4","Y_1.png","1","Y_2.png","2","Y_3.png","3","Y_4.png","4","confidence.png","1","guessing.png","2","respond_yes.png","3","respond_no.png","4","Word 0 of 12","1","Image 3 of 3","1","reveal.png","5"
"A222R4PNCF08OF","practiceBlock","practice_present_trial","3","958","yes_4","Picture2.jpg","N_1.png","1","N_2.png","2","N_3.png","3","N_4.png","4","Y_1.png","1","Y_2.png","2","Y_3.png","3","Y_4.png","4","confidence.png","1","guessing.png","2","respond_yes.png","3","respond_no.png","4","Word 1 of 12","1","Image 3 of 3","1","yellow","2"
"A222R4PNCF08OF","practiceBlock","centre_mouse","4","607","reveal","Picture2.jpg","N_1.png","1","N_2.png","2","N_3.png","3","N_4.png","4","Y_1.png","1","Y_2.png","2","Y_3.png","3","Y_4.png","4","confidence.png","1","guessing.png","2","respond_yes.png","3","respond_no.png","4","Word 1 of 12","1","Image 3 of 3","1","reveal.png","5"
"A222R4PNCF08OF","practiceBlock","practice_present_trial","5","836","yes_4","Picture2.jpg","N_1.png","1","N_2.png","2","N_3.png","3","N_4.png","4","Y_1.png","1","Y_2.png","2","Y_3.png","3","Y_4.png","4","confidence.png","1","guessing.png","2","respond_yes.png","3","respond_no.png","4","Word 2 of 12","1","Image 3 of 3","1","happy","5"
"A222R4PNCF08OF","practiceBlock","centre_mouse","6","585","reveal","Picture2.jpg","N_1.png","1","N_2.png","2","N_3.png","3","N_4.png","4","Y_1.png","1","Y_2.png","2","Y_3.png","3","Y_4.png","4","confidence.png","1","guessing.png","2","respond_yes.png","3","respond_no.png","4","Word 2 of 12","1","Image 3 of 3","1","reveal.png","5"
"A222R4PNCF08OF","practiceBlock","practice_present_trial","7","816","yes_4","Picture2.jpg","N_1.png","1","N_2.png","2","N_3.png","3","N_4.png","4","Y_1.png","1","Y_2.png","2","Y_3.png","3","Y_4.png","4","confidence.png","1","guessing.png","2","respond_yes.png","3","respond_no.png","4","Word 3 of 12","1","Image 3 of 3","1","smile","4"
"A222R4PNCF08OF","practiceBlock","centre_mouse","8","657","reveal","Picture2.jpg","N_1.png","1","N_2.png","2","N_3.png","3","N_4.png","4","Y_1.png","1","Y_2.png","2","Y_3.png","3","Y_4.png","4","confidence.png","1","guessing.png","2","respond_yes.png","3","respond_no.png","4","Word 3 of 12","1","Image 3 of 3","1","reveal.png","5"
"A222R4PNCF08OF","practiceBlock","practice_present_trial","9","844","yes_4","Picture2.jpg","N_1.png","1","N_2.png","2","N_3.png","3","N_4.png","4","Y_1.png","1","Y_2.png","2","Y_3.png","3","Y_4.png","4","confidence.png","1","guessing.png","2","respond_yes.png","3","respond_no.png","4","Word 4 of 12","1","Image 3 of 3","1","emoji","6"
"A222R4PNCF08OF","practiceBlock","centre_mouse","10","562","reveal","Picture2.jpg","N_1.png","1","N_2.png","2","N_3.png","3","N_4.png","4","Y_1.png","1","Y_2.png","2","Y_3.png","3","Y_4.png","4","confidence.png","1","guessing.png","2","respond_yes.png","3","respond_no.png","4","Word 4 of 12","1","Image 3 of 3","1","reveal.png","5"
"A222R4PNCF08OF","practiceBlock","practice_present_trial","11","1902","yes_4","Picture2.jpg","N_1.png","1","N_2.png","2","N_3.png","3","N_4.png","4","Y_1.png","1","Y_2.png","2","Y_3.png","3","Y_4.png","4","confidence.png","1","guessing.png","2","respond_yes.png","3","respond_no.png","4","Word 5 of 12","1","Image 3 of 3","1","eyes","3"
"A222R4PNCF08OF","practiceBlock","centre_mouse","12","805","reveal","Picture2.jpg","N_1.png","1","N_2.png","2","N_3.png","3","N_4.png","4","Y_1.png","1","Y_2.png","2","Y_3.png","3","Y_4.png","4","confidence.png","1","guessing.png","2","respond_yes.png","3","respond_no.png","4","Word 5 of 12","1","Image 3 of 3","1","reveal.png","5"
"A222R4PNCF08OF","practiceBlock","practice_absent_trial","13","1331","no_4","Picture2.jpg","N_1.png","1","N_2.png","2","N_3.png","3","N_4.png","4","Y_1.png","1","Y_2.png","2","Y_3.png","3","Y_4.png","4","confidence.png","1","guessing.png","2","respond_yes.png","3","respond_no.png","4","Word 6 of 12","1","Image 3 of 3","1","metal","3"
"A222R4PNCF08OF","practiceBlock","centre_mouse","14","580","reveal","Picture2.jpg","N_1.png","1","N_2.png","2","N_3.png","3","N_4.png","4","Y_1.png","1","Y_2.png","2","Y_3.png","3","Y_4.png","4","confidence.png","1","guessing.png","2","respond_yes.png","3","respond_no.png","4","Word 6 of 12","1","Image 3 of 3","1","reveal.png","5"
"A222R4PNCF08OF","practiceBlock","practice_absent_trial","15","842","no_4","Picture2.jpg","N_1.png","1","N_2.png","2","N_3.png","3","N_4.png","4","Y_1.png","1","Y_2.png","2","Y_3.png","3","Y_4.png","4","confidence.png","1","guessing.png","2","respond_yes.png","3","respond_no.png","4","Word 7 of 12","1","Image 3 of 3","1","anxious","5"
"A222R4PNCF08OF","practiceBlock","centre_mouse","16","455","reveal","Picture2.jpg","N_1.png","1","N_2.png","2","N_3.png","3","N_4.png","4","Y_1.png","1","Y_2.png","2","Y_3.png","3","Y_4.png","4","confidence.png","1","guessing.png","2","respond_yes.png","3","respond_no.png","4","Word 7 of 12","1","Image 3 of 3","1","reveal.png","5"
"A222R4PNCF08OF","practiceBlock","practice_present_trial","17","2001","yes_3","Picture2.jpg","N_1.png","1","N_2.png","2","N_3.png","3","N_4.png","4","Y_1.png","1","Y_2.png","2","Y_3.png","3","Y_4.png","4","confidence.png","1","guessing.png","2","respond_yes.png","3","respond_no.png","4","Word 8 of 12","1","Image 3 of 3","1","face","1"
"A222R4PNCF08OF","practiceBlock","centre_mouse","18","1283","reveal","Picture2.jpg","N_1.png","1","N_2.png","2","N_3.png","3","N_4.png","4","Y_1.png","1","Y_2.png","2","Y_3.png","3","Y_4.png","4","confidence.png","1","guessing.png","2","respond_yes.png","3","respond_no.png","4","Word 8 of 12","1","Image 3 of 3","1","reveal.png","5"
"A222R4PNCF08OF","practiceBlock","practice_absent_trial","19","1269","no_4","Picture2.jpg","N_1.png","1","N_2.png","2","N_3.png","3","N_4.png","4","Y_1.png","1","Y_2.png","2","Y_3.png","3","Y_4.png","4","confidence.png","1","guessing.png","2","respond_yes.png","3","respond_no.png","4","Word 9 of 12","1","Image 3 of 3","1","man","6"
"A222R4PNCF08OF","practiceBlock","centre_mouse","20","705","reveal","Picture2.jpg","N_1.png","1","N_2.png","2","N_3.png","3","N_4.png","4","Y_1.png","1","Y_2.png","2","Y_3.png","3","Y_4.png","4","confidence.png","1","guessing.png","2","respond_yes.png","3","respond_no.png","4","Word 9 of 12","1","Image 3 of 3","1","reveal.png","5"
"A222R4PNCF08OF","practiceBlock","practice_absent_trial","21","987","no_4","Picture2.jpg","N_1.png","1","N_2.png","2","N_3.png","3","N_4.png","4","Y_1.png","1","Y_2.png","2","Y_3.png","3","Y_4.png","4","confidence.png","1","guessing.png","2","respond_yes.png","3","respond_no.png","4","Word 10 of 12","1","Image 3 of 3","1","beauty","2"
"A222R4PNCF08OF","practiceBlock","centre_mouse","22","450","reveal","Picture2.jpg","N_1.png","1","N_2.png","2","N_3.png","3","N_4.png","4","Y_1.png","1","Y_2.png","2","Y_3.png","3","Y_4.png","4","confidence.png","1","guessing.png","2","respond_yes.png","3","respond_no.png","4","Word 10 of 12","1","Image 3 of 3","1","reveal.png","5"
"A222R4PNCF08OF","practiceBlock","practice_absent_trial","23","903","no_4","Picture2.jpg","N_1.png","1","N_2.png","2","N_3.png","3","N_4.png","4","Y_1.png","1","Y_2.png","2","Y_3.png","3","Y_4.png","4","confidence.png","1","guessing.png","2","respond_yes.png","3","respond_no.png","4","Word 11 of 12","1","Image 3 of 3","1","grey-clothes","4"
"A222R4PNCF08OF","practiceBlock","centre_mouse","24","474","reveal","Picture2.jpg","N_1.png","1","N_2.png","2","N_3.png","3","N_4.png","4","Y_1.png","1","Y_2.png","2","Y_3.png","3","Y_4.png","4","confidence.png","1","guessing.png","2","respond_yes.png","3","respond_no.png","4","Word 11 of 12","1","Image 3 of 3","1","reveal.png","5"
"A222R4PNCF08OF","practiceBlock","practice_absent_trial","25","832","no_4","Picture2.jpg","N_1.png","1","N_2.png","2","N_3.png","3","N_4.png","4","Y_1.png","1","Y_2.png","2","Y_3.png","3","Y_4.png","4","confidence.png","1","guessing.png","2","respond_yes.png","3","respond_no.png","4","Word 12 of 12","1","Image 3 of 3","1","walk","1"
"A222R4PNCF08OF","practiceBlock","centre_mouse","26","765","reveal","Picture2.jpg","N_1.png","1","N_2.png","2","N_3.png","3","N_4.png","4","Y_1.png","1","Y_2.png","2","Y_3.png","3","Y_4.png","4","confidence.png","1","guessing.png","2","respond_yes.png","3","respond_no.png","4","Word 12 of 12","1","Image 3 of 3","1","reveal.png","5"
"A222R4PNCF08OF","practiceBlock","catch_absent_trial","27","2298","no_1","Picture2.jpg","N_1.png","1","N_2.png","2","N_3.png","3","N_4.png","4","Y_1.png","1","Y_2.png","2","Y_3.png","3","Y_4.png","4","confidence.png","1","guessing.png","2","respond_yes.png","3","respond_no.png","4","Word 12 of 12","1","Image 3 of 3","1","PRESS: No 1","1"
"A222R4PNCF08OF","practiceBlock","centre_mouse","28","1049","reveal","Picture2.jpg","N_1.png","1","N_2.png","2","N_3.png","3","N_4.png","4","Y_1.png","1","Y_2.png","2","Y_3.png","3","Y_4.png","4","confidence.png","1","guessing.png","2","respond_yes.png","3","respond_no.png","4","Word 12 of 12","1","Image 3 of 3","1","reveal.png","5"
"A222R4PNCF08OF","practiceBlock","catch_present_trial","29","1164","yes_4","Picture2.jpg","N_1.png","1","N_2.png","2","N_3.png","3","N_4.png","4","Y_1.png","1","Y_2.png","2","Y_3.png","3","Y_4.png","4","confidence.png","1","guessing.png","2","respond_yes.png","3","respond_no.png","4","Word 12 of 12","1","Image 3 of 3","1","PRESS: Yes 4","4"
"A222R4PNCF08OF","practiceBlock","centre_mouse","30","1275","reveal","Picture2.jpg","N_1.png","1","N_2.png","2","N_3.png","3","N_4.png","4","Y_1.png","1","Y_2.png","2","Y_3.png","3","Y_4.png","4","confidence.png","1","guessing.png","2","respond_yes.png","3","respond_no.png","4","Word 12 of 12","1","Image 3 of 3","1","reveal.png","5"
"A222R4PNCF08OF","reset","reset","1","200","0","Picture2.jpg","0","0","0","0","0","0","0","0","0","0","0","0","0","0","0","0","0","0","0","0","0","0","0","0","0","0","0","0","0","0"
"A222R4PNCF08OF","testBlock","test","1","1","0","im0000041.jpg","+","1","im0000063.jpg","4","mask3.jpg","3","mask4.jpg","4","mask3.jpg","3","mask3.jpg","3","mask2.jpg","2","0","0","0","0","0","0","0","0","0","0","0","0","0","0","0","0"
"A222R4PNCF08OF","testBlock","centre_mouse","2","1287","reveal","im0000041.jpg","N_1.png","1","N_2.png","2","N_3.png","3","N_4.png","4","Y_1.png","1","Y_2.png","2","Y_3.png","3","Y_4.png","4","confidence.png","1","guessing.png","2","respond_yes.png","3","respond_no.png","4","Word 0 of 40","1","Image 1 of 5","1","reveal.png","5"
"A222R4PNCF08OF","testBlock","present_trial","3","2107","yes_3","im0000063.jpg","N_1.png","1","N_2.png","2","N_3.png","3","N_4.png","4","Y_1.png","1","Y_2.png","2","Y_3.png","3","Y_4.png","4","confidence.png","1","guessing.png","2","respond_yes.png","3","respond_no.png","4","Word 1 of 40","1","Image 1 of 5","1","mom","13"
"A222R4PNCF08OF","testBlock","centre_mouse","4","613","reveal","im0000063.jpg","N_1.png","1","N_2.png","2","N_3.png","3","N_4.png","4","Y_1.png","1","Y_2.png","2","Y_3.png","3","Y_4.png","4","confidence.png","1","guessing.png","2","respond_yes.png","3","respond_no.png","4","Word 1 of 40","1","Image 1 of 5","1","reveal.png","5"
"A222R4PNCF08OF","testBlock","absent_trial","5","1618","yes_4","im0000063.jpg","N_1.png","1","N_2.png","2","N_3.png","3","N_4.png","4","Y_1.png","1","Y_2.png","2","Y_3.png","3","Y_4.png","4","confidence.png","1","guessing.png","2","respond_yes.png","3","respond_no.png","4","Word 2 of 40","1","Image 1 of 5","1","day-time","11"
"A222R4PNCF08OF","testBlock","centre_mouse","6","633","reveal","im0000063.jpg","N_1.png","1","N_2.png","2","N_3.png","3","N_4.png","4","Y_1.png","1","Y_2.png","2","Y_3.png","3","Y_4.png","4","confidence.png","1","guessing.png","2","respond_yes.png","3","respond_no.png","4","Word 2 of 40","1","Image 1 of 5","1","reveal.png","5"
"A222R4PNCF08OF","testBlock","present_trial","7","1277","yes_4","im0000063.jpg","N_1.png","1","N_2.png","2","N_3.png","3","N_4.png","4","Y_1.png","1","Y_2.png","2","Y_3.png","3","Y_4.png","4","confidence.png","1","guessing.png","2","respond_yes.png","3","respond_no.png","4","Word 3 of 40","1","Image 1 of 5","1","touch","17"
"A222R4PNCF08OF","testBlock","centre_mouse","8","695","reveal","im0000063.jpg","N_1.png","1","N_2.png","2","N_3.png","3","N_4.png","4","Y_1.png","1","Y_2.png","2","Y_3.png","3","Y_4.png","4","confidence.png","1","guessing.png","2","respond_yes.png","3","respond_no.png","4","Word 3 of 40","1","Image 1 of 5","1","reveal.png","5"
"A222R4PNCF08OF","testBlock","absent_trial","9","1471","no_4","im0000063.jpg","N_1.png","1","N_2.png","2","N_3.png","3","N_4.png","4","Y_1.png","1","Y_2.png","2","Y_3.png","3","Y_4.png","4","confidence.png","1","guessing.png","2","respond_yes.png","3","respond_no.png","4","Word 4 of 40","1","Image 1 of 5","1","atv","1"
"A222R4PNCF08OF","testBlock","centre_mouse","10","507","reveal","im0000063.jpg","N_1.png","1","N_2.png","2","N_3.png","3","N_4.png","4","Y_1.png","1","Y_2.png","2","Y_3.png","3","Y_4.png","4","confidence.png","1","guessing.png","2","respond_yes.png","3","respond_no.png","4","Word 4 of 40","1","Image 1 of 5","1","reveal.png","5"
"A222R4PNCF08OF","testBlock","absent_trial","11","827","no_4","im0000063.jpg","N_1.png","1","N_2.png","2","N_3.png","3","N_4.png","4","Y_1.png","1","Y_2.png","2","Y_3.png","3","Y_4.png","4","confidence.png","1","guessing.png","2","respond_yes.png","3","respond_no.png","4","Word 5 of 40","1","Image 1 of 5","1","sound","14"
"A222R4PNCF08OF","testBlock","centre_mouse","12","392","reveal","im0000063.jpg","N_1.png","1","N_2.png","2","N_3.png","3","N_4.png","4","Y_1.png","1","Y_2.png","2","Y_3.png","3","Y_4.png","4","confidence.png","1","guessing.png","2","respond_yes.png","3","respond_no.png","4","Word 5 of 40","1","Image 1 of 5","1","reveal.png","5"
"A222R4PNCF08OF","testBlock","absent_trial","13","1676","yes_4","im0000063.jpg","N_1.png","1","N_2.png","2","N_3.png","3","N_4.png","4","Y_1.png","1","Y_2.png","2","Y_3.png","3","Y_4.png","4","confidence.png","1","guessing.png","2","respond_yes.png","3","respond_no.png","4","Word 6 of 40","1","Image 1 of 5","1","river","3"
"A222R4PNCF08OF","testBlock","centre_mouse","14","887","reveal","im0000063.jpg","N_1.png","1","N_2.png","2","N_3.png","3","N_4.png","4","Y_1.png","1","Y_2.png","2","Y_3.png","3","Y_4.png","4","confidence.png","1","guessing.png","2","respond_yes.png","3","respond_no.png","4","Word 6 of 40","1","Image 1 of 5","1","reveal.png","5"
"A222R4PNCF08OF","testBlock","present_trial","15","1721","no_4","im0000063.jpg","N_1.png","1","N_2.png","2","N_3.png","3","N_4.png","4","Y_1.png","1","Y_2.png","2","Y_3.png","3","Y_4.png","4","confidence.png","1","guessing.png","2","respond_yes.png","3","respond_no.png","4","Word 7 of 40","1","Image 1 of 5","1","bath","18"
"A222R4PNCF08OF","testBlock","centre_mouse","16","780","reveal","im0000063.jpg","N_1.png","1","N_2.png","2","N_3.png","3","N_4.png","4","Y_1.png","1","Y_2.png","2","Y_3.png","3","Y_4.png","4","confidence.png","1","guessing.png","2","respond_yes.png","3","respond_no.png","4","Word 7 of 40","1","Image 1 of 5","1","reveal.png","5"
"A222R4PNCF08OF","testBlock","present_trial","17","3260","yes_1","im0000063.jpg","N_1.png","1","N_2.png","2","N_3.png","3","N_4.png","4","Y_1.png","1","Y_2.png","2","Y_3.png","3","Y_4.png","4","confidence.png","1","guessing.png","2","respond_yes.png","3","respond_no.png","4","Word 8 of 40","1","Image 1 of 5","1","africa","5"
"A222R4PNCF08OF","testBlock","centre_mouse","18","664","reveal","im0000063.jpg","N_1.png","1","N_2.png","2","N_3.png","3","N_4.png","4","Y_1.png","1","Y_2.png","2","Y_3.png","3","Y_4.png","4","confidence.png","1","guessing.png","2","respond_yes.png","3","respond_no.png","4","Word 8 of 40","1","Image 1 of 5","1","reveal.png","5"
"A222R4PNCF08OF","testBlock","absent_trial","19","1267","no_4","im0000063.jpg","N_1.png","1","N_2.png","2","N_3.png","3","N_4.png","4","Y_1.png","1","Y_2.png","2","Y_3.png","3","Y_4.png","4","confidence.png","1","guessing.png","2","respond_yes.png","3","respond_no.png","4","Word 9 of 40","1","Image 1 of 5","1","snowy","5"
"A222R4PNCF08OF","testBlock","centre_mouse","20","1127","reveal","im0000063.jpg","N_1.png","1","N_2.png","2","N_3.png","3","N_4.png","4","Y_1.png","1","Y_2.png","2","Y_3.png","3","Y_4.png","4","confidence.png","1","guessing.png","2","respond_yes.png","3","respond_no.png","4","Word 9 of 40","1","Image 1 of 5","1","reveal.png","5"
"A222R4PNCF08OF","testBlock","present_trial","21","1102","yes_4","im0000063.jpg","N_1.png","1","N_2.png","2","N_3.png","3","N_4.png","4","Y_1.png","1","Y_2.png","2","Y_3.png","3","Y_4.png","4","confidence.png","1","guessing.png","2","respond_yes.png","3","respond_no.png","4","Word 10 of 40","1","Image 1 of 5","1","river","10"
"A222R4PNCF08OF","testBlock","centre_mouse","22","506","reveal","im0000063.jpg","N_1.png","1","N_2.png","2","N_3.png","3","N_4.png","4","Y_1.png","1","Y_2.png","2","Y_3.png","3","Y_4.png","4","confidence.png","1","guessing.png","2","respond_yes.png","3","respond_no.png","4","Word 10 of 40","1","Image 1 of 5","1","reveal.png","5"
"A222R4PNCF08OF","testBlock","present_trial","23","995","yes_4","im0000063.jpg","N_1.png","1","N_2.png","2","N_3.png","3","N_4.png","4","Y_1.png","1","Y_2.png","2","Y_3.png","3","Y_4.png","4","confidence.png","1","guessing.png","2","respond_yes.png","3","respond_no.png","4","Word 11 of 40","1","Image 1 of 5","1","water","1"
"A222R4PNCF08OF","testBlock","centre_mouse","24","465","reveal","im0000063.jpg","N_1.png","1","N_2.png","2","N_3.png","3","N_4.png","4","Y_1.png","1","Y_2.png","2","Y_3.png","3","Y_4.png","4","confidence.png","1","guessing.png","2","respond_yes.png","3","respond_no.png","4","Word 11 of 40","1","Image 1 of 5","1","reveal.png","5"
"A222R4PNCF08OF","testBlock","absent_trial","25","1635","no_1","im0000063.jpg","N_1.png","1","N_2.png","2","N_3.png","3","N_4.png","4","Y_1.png","1","Y_2.png","2","Y_3.png","3","Y_4.png","4","confidence.png","1","guessing.png","2","respond_yes.png","3","respond_no.png","4","Word 12 of 40","1","Image 1 of 5","1","clothe","10"
"A222R4PNCF08OF","testBlock","centre_mouse","26","1000","reveal","im0000063.jpg","N_1.png","1","N_2.png","2","N_3.png","3","N_4.png","4","Y_1.png","1","Y_2.png","2","Y_3.png","3","Y_4.png","4","confidence.png","1","guessing.png","2","respond_yes.png","3","respond_no.png","4","Word 12 of 40","1","Image 1 of 5","1","reveal.png","5"
"A222R4PNCF08OF","testBlock","present_trial","27","1126","yes_4","im0000063.jpg","N_1.png","1","N_2.png","2","N_3.png","3","N_4.png","4","Y_1.png","1","Y_2.png","2","Y_3.png","3","Y_4.png","4","confidence.png","1","guessing.png","2","respond_yes.png","3","respond_no.png","4","Word 13 of 40","1","Image 1 of 5","1","rhino","6"
"A222R4PNCF08OF","testBlock","centre_mouse","28","606","reveal","im0000063.jpg","N_1.png","1","N_2.png","2","N_3.png","3","N_4.png","4","Y_1.png","1","Y_2.png","2","Y_3.png","3","Y_4.png","4","confidence.png","1","guessing.png","2","respond_yes.png","3","respond_no.png","4","Word 13 of 40","1","Image 1 of 5","1","reveal.png","5"
"A222R4PNCF08OF","testBlock","absent_trial","29","1307","no_4","im0000063.jpg","N_1.png","1","N_2.png","2","N_3.png","3","N_4.png","4","Y_1.png","1","Y_2.png","2","Y_3.png","3","Y_4.png","4","confidence.png","1","guessing.png","2","respond_yes.png","3","respond_no.png","4","Word 14 of 40","1","Image 1 of 5","1","bathroom","16"
"A222R4PNCF08OF","testBlock","centre_mouse","30","406","reveal","im0000063.jpg","N_1.png","1","N_2.png","2","N_3.png","3","N_4.png","4","Y_1.png","1","Y_2.png","2","Y_3.png","3","Y_4.png","4","confidence.png","1","guessing.png","2","respond_yes.png","3","respond_no.png","4","Word 14 of 40","1","Image 1 of 5","1","reveal.png","5"
"A222R4PNCF08OF","testBlock","absent_trial","31","1139","no_4","im0000063.jpg","N_1.png","1","N_2.png","2","N_3.png","3","N_4.png","4","Y_1.png","1","Y_2.png","2","Y_3.png","3","Y_4.png","4","confidence.png","1","guessing.png","2","respond_yes.png","3","respond_no.png","4","Word 15 of 40","1","Image 1 of 5","1","small-stucture","6"
"A222R4PNCF08OF","testBlock","centre_mouse","32","421","reveal","im0000063.jpg","N_1.png","1","N_2.png","2","N_3.png","3","N_4.png","4","Y_1.png","1","Y_2.png","2","Y_3.png","3","Y_4.png","4","confidence.png","1","guessing.png","2","respond_yes.png","3","respond_no.png","4","Word 15 of 40","1","Image 1 of 5","1","reveal.png","5"
"A222R4PNCF08OF","testBlock","present_trial","33","2061","yes_2","im0000063.jpg","N_1.png","1","N_2.png","2","N_3.png","3","N_4.png","4","Y_1.png","1","Y_2.png","2","Y_3.png","3","Y_4.png","4","confidence.png","1","guessing.png","2","respond_yes.png","3","respond_no.png","4","Word 16 of 40","1","Image 1 of 5","1","dirt","9"
"A222R4PNCF08OF","testBlock","centre_mouse","34","504","reveal","im0000063.jpg","N_1.png","1","N_2.png","2","N_3.png","3","N_4.png","4","Y_1.png","1","Y_2.png","2","Y_3.png","3","Y_4.png","4","confidence.png","1","guessing.png","2","respond_yes.png","3","respond_no.png","4","Word 16 of 40","1","Image 1 of 5","1","reveal.png","5"
"A222R4PNCF08OF","testBlock","absent_trial","35","971","no_4","im0000063.jpg","N_1.png","1","N_2.png","2","N_3.png","3","N_4.png","4","Y_1.png","1","Y_2.png","2","Y_3.png","3","Y_4.png","4","confidence.png","1","guessing.png","2","respond_yes.png","3","respond_no.png","4","Word 17 of 40","1","Image 1 of 5","1","rose-ball","20"
"A222R4PNCF08OF","testBlock","centre_mouse","36","411","reveal","im0000063.jpg","N_1.png","1","N_2.png","2","N_3.png","3","N_4.png","4","Y_1.png","1","Y_2.png","2","Y_3.png","3","Y_4.png","4","confidence.png","1","guessing.png","2","respond_yes.png","3","respond_no.png","4","Word 17 of 40","1","Image 1 of 5","1","reveal.png","5"
"A222R4PNCF08OF","testBlock","present_trial","37","1885","yes_3","im0000063.jpg","N_1.png","1","N_2.png","2","N_3.png","3","N_4.png","4","Y_1.png","1","Y_2.png","2","Y_3.png","3","Y_4.png","4","confidence.png","1","guessing.png","2","respond_yes.png","3","respond_no.png","4","Word 18 of 40","1","Image 1 of 5","1","baby","3"
"A222R4PNCF08OF","testBlock","centre_mouse","38","1437","reveal","im0000063.jpg","N_1.png","1","N_2.png","2","N_3.png","3","N_4.png","4","Y_1.png","1","Y_2.png","2","Y_3.png","3","Y_4.png","4","confidence.png","1","guessing.png","2","respond_yes.png","3","respond_no.png","4","Word 18 of 40","1","Image 1 of 5","1","reveal.png","5"
"A222R4PNCF08OF","testBlock","catch_absent_trial","39","1649","no_2","im0000063.jpg","N_1.png","1","N_2.png","2","N_3.png","3","N_4.png","4","Y_1.png","1","Y_2.png","2","Y_3.png","3","Y_4.png","4","confidence.png","1","guessing.png","2","respond_yes.png","3","respond_no.png","4","Word 18 of 40","1","Image 1 of 5","1","PRESS: No 2","2"
"A222R4PNCF08OF","testBlock","centre_mouse","40","661","reveal","im0000063.jpg","N_1.png","1","N_2.png","2","N_3.png","3","N_4.png","4","Y_1.png","1","Y_2.png","2","Y_3.png","3","Y_4.png","4","confidence.png","1","guessing.png","2","respond_yes.png","3","respond_no.png","4","Word 18 of 40","1","Image 1 of 5","1","reveal.png","5"
"A222R4PNCF08OF","testBlock","present_trial","41","1823","yes_4","im0000063.jpg","N_1.png","1","N_2.png","2","N_3.png","3","N_4.png","4","Y_1.png","1","Y_2.png","2","Y_3.png","3","Y_4.png","4","confidence.png","1","guessing.png","2","respond_yes.png","3","respond_no.png","4","Word 19 of 40","1","Image 1 of 5","1","cute","11"
"A222R4PNCF08OF","testBlock","centre_mouse","42","629","reveal","im0000063.jpg","N_1.png","1","N_2.png","2","N_3.png","3","N_4.png","4","Y_1.png","1","Y_2.png","2","Y_3.png","3","Y_4.png","4","confidence.png","1","guessing.png","2","respond_yes.png","3","respond_no.png","4","Word 19 of 40","1","Image 1 of 5","1","reveal.png","5"
"A222R4PNCF08OF","testBlock","absent_trial","43","1057","yes_4","im0000063.jpg","N_1.png","1","N_2.png","2","N_3.png","3","N_4.png","4","Y_1.png","1","Y_2.png","2","Y_3.png","3","Y_4.png","4","confidence.png","1","guessing.png","2","respond_yes.png","3","respond_no.png","4","Word 20 of 40","1","Image 1 of 5","1","wonderful","2"
"A222R4PNCF08OF","testBlock","centre_mouse","44","748","reveal","im0000063.jpg","N_1.png","1","N_2.png","2","N_3.png","3","N_4.png","4","Y_1.png","1","Y_2.png","2","Y_3.png","3","Y_4.png","4","confidence.png","1","guessing.png","2","respond_yes.png","3","respond_no.png","4","Word 20 of 40","1","Image 1 of 5","1","reveal.png","5"
"A222R4PNCF08OF","testBlock","absent_trial","45","2454","yes_3","im0000063.jpg","N_1.png","1","N_2.png","2","N_3.png","3","N_4.png","4","Y_1.png","1","Y_2.png","2","Y_3.png","3","Y_4.png","4","confidence.png","1","guessing.png","2","respond_yes.png","3","respond_no.png","4","Word 21 of 40","1","Image 1 of 5","1","perfect","7"
"A222R4PNCF08OF","testBlock","centre_mouse","46","1346","reveal","im0000063.jpg","N_1.png","1","N_2.png","2","N_3.png","3","N_4.png","4","Y_1.png","1","Y_2.png","2","Y_3.png","3","Y_4.png","4","confidence.png","1","guessing.png","2","respond_yes.png","3","respond_no.png","4","Word 21 of 40","1","Image 1 of 5","1","reveal.png","5"
"A222R4PNCF08OF","testBlock","present_trial","47","1653","no_3","im0000063.jpg","N_1.png","1","N_2.png","2","N_3.png","3","N_4.png","4","Y_1.png","1","Y_2.png","2","Y_3.png","3","Y_4.png","4","confidence.png","1","guessing.png","2","respond_yes.png","3","respond_no.png","4","Word 22 of 40","1","Image 1 of 5","1","lake","19"
"A222R4PNCF08OF","testBlock","centre_mouse","48","450","reveal","im0000063.jpg","N_1.png","1","N_2.png","2","N_3.png","3","N_4.png","4","Y_1.png","1","Y_2.png","2","Y_3.png","3","Y_4.png","4","confidence.png","1","guessing.png","2","respond_yes.png","3","respond_no.png","4","Word 22 of 40","1","Image 1 of 5","1","reveal.png","5"
"A222R4PNCF08OF","testBlock","absent_trial","49","1348","yes_3","im0000063.jpg","N_1.png","1","N_2.png","2","N_3.png","3","N_4.png","4","Y_1.png","1","Y_2.png","2","Y_3.png","3","Y_4.png","4","confidence.png","1","guessing.png","2","respond_yes.png","3","respond_no.png","4","Word 23 of 40","1","Image 1 of 5","1","child","9"
"A222R4PNCF08OF","testBlock","centre_mouse","50","421","reveal","im0000063.jpg","N_1.png","1","N_2.png","2","N_3.png","3","N_4.png","4","Y_1.png","1","Y_2.png","2","Y_3.png","3","Y_4.png","4","confidence.png","1","guessing.png","2","respond_yes.png","3","respond_no.png","4","Word 23 of 40","1","Image 1 of 5","1","reveal.png","5"
"A222R4PNCF08OF","testBlock","absent_trial","51","1665","yes_2","im0000063.jpg","N_1.png","1","N_2.png","2","N_3.png","3","N_4.png","4","Y_1.png","1","Y_2.png","2","Y_3.png","3","Y_4.png","4","confidence.png","1","guessing.png","2","respond_yes.png","3","respond_no.png","4","Word 24 of 40","1","Image 1 of 5","1","grass","8"
"A222R4PNCF08OF","testBlock","centre_mouse","52","462","reveal","im0000063.jpg","N_1.png","1","N_2.png","2","N_3.png","3","N_4.png","4","Y_1.png","1","Y_2.png","2","Y_3.png","3","Y_4.png","4","confidence.png","1","guessing.png","2","respond_yes.png","3","respond_no.png","4","Word 24 of 40","1","Image 1 of 5","1","reveal.png","5"
"A222R4PNCF08OF","testBlock","present_trial","53","1560","yes_4","im0000063.jpg","N_1.png","1","N_2.png","2","N_3.png","3","N_4.png","4","Y_1.png","1","Y_2.png","2","Y_3.png","3","Y_4.png","4","confidence.png","1","guessing.png","2","respond_yes.png","3","respond_no.png","4","Word 25 of 40","1","Image 1 of 5","1","two","4"
"A222R4PNCF08OF","testBlock","centre_mouse","54","439","reveal","im0000063.jpg","N_1.png","1","N_2.png","2","N_3.png","3","N_4.png","4","Y_1.png","1","Y_2.png","2","Y_3.png","3","Y_4.png","4","confidence.png","1","guessing.png","2","respond_yes.png","3","respond_no.png","4","Word 25 of 40","1","Image 1 of 5","1","reveal.png","5"
"A222R4PNCF08OF","testBlock","present_trial","55","1835","yes_4","im0000063.jpg","N_1.png","1","N_2.png","2","N_3.png","3","N_4.png","4","Y_1.png","1","Y_2.png","2","Y_3.png","3","Y_4.png","4","confidence.png","1","guessing.png","2","respond_yes.png","3","respond_no.png","4","Word 26 of 40","1","Image 1 of 5","1","blue-sky","15"
"A222R4PNCF08OF","testBlock","centre_mouse","56","473","reveal","im0000063.jpg","N_1.png","1","N_2.png","2","N_3.png","3","N_4.png","4","Y_1.png","1","Y_2.png","2","Y_3.png","3","Y_4.png","4","confidence.png","1","guessing.png","2","respond_yes.png","3","respond_no.png","4","Word 26 of 40","1","Image 1 of 5","1","reveal.png","5"
"A222R4PNCF08OF","testBlock","catch_absent_trial","57","1935","no_3","im0000063.jpg","N_1.png","1","N_2.png","2","N_3.png","3","N_4.png","4","Y_1.png","1","Y_2.png","2","Y_3.png","3","Y_4.png","4","confidence.png","1","guessing.png","2","respond_yes.png","3","respond_no.png","4","Word 26 of 40","1","Image 1 of 5","1","PRESS: No 3","3"
"A222R4PNCF08OF","testBlock","centre_mouse","58","1096","reveal","im0000063.jpg","N_1.png","1","N_2.png","2","N_3.png","3","N_4.png","4","Y_1.png","1","Y_2.png","2","Y_3.png","3","Y_4.png","4","confidence.png","1","guessing.png","2","respond_yes.png","3","respond_no.png","4","Word 26 of 40","1","Image 1 of 5","1","reveal.png","5"
"A222R4PNCF08OF","testBlock","present_trial","59","2168","yes_3","im0000063.jpg","N_1.png","1","N_2.png","2","N_3.png","3","N_4.png","4","Y_1.png","1","Y_2.png","2","Y_3.png","3","Y_4.png","4","confidence.png","1","guessing.png","2","respond_yes.png","3","respond_no.png","4","Word 27 of 40","1","Image 1 of 5","1","rhinoceros","20"
"A222R4PNCF08OF","testBlock","centre_mouse","60","968","reveal","im0000063.jpg","N_1.png","1","N_2.png","2","N_3.png","3","N_4.png","4","Y_1.png","1","Y_2.png","2","Y_3.png","3","Y_4.png","4","confidence.png","1","guessing.png","2","respond_yes.png","3","respond_no.png","4","Word 27 of 40","1","Image 1 of 5","1","reveal.png","5"
"A222R4PNCF08OF","testBlock","present_trial","61","883","yes_4","im0000063.jpg","N_1.png","1","N_2.png","2","N_3.png","3","N_4.png","4","Y_1.png","1","Y_2.png","2","Y_3.png","3","Y_4.png","4","confidence.png","1","guessing.png","2","respond_yes.png","3","respond_no.png","4","Word 28 of 40","1","Image 1 of 5","1","animal","7"
"A222R4PNCF08OF","testBlock","centre_mouse","62","446","reveal","im0000063.jpg","N_1.png","1","N_2.png","2","N_3.png","3","N_4.png","4","Y_1.png","1","Y_2.png","2","Y_3.png","3","Y_4.png","4","confidence.png","1","guessing.png","2","respond_yes.png","3","respond_no.png","4","Word 28 of 40","1","Image 1 of 5","1","reveal.png","5"
"A222R4PNCF08OF","testBlock","absent_trial","63","1378","no_4","im0000063.jpg","N_1.png","1","N_2.png","2","N_3.png","3","N_4.png","4","Y_1.png","1","Y_2.png","2","Y_3.png","3","Y_4.png","4","confidence.png","1","guessing.png","2","respond_yes.png","3","respond_no.png","4","Word 29 of 40","1","Image 1 of 5","1","celebration","13"
"A222R4PNCF08OF","testBlock","centre_mouse","64","449","reveal","im0000063.jpg","N_1.png","1","N_2.png","2","N_3.png","3","N_4.png","4","Y_1.png","1","Y_2.png","2","Y_3.png","3","Y_4.png","4","confidence.png","1","guessing.png","2","respond_yes.png","3","respond_no.png","4","Word 29 of 40","1","Image 1 of 5","1","reveal.png","5"
"A222R4PNCF08OF","testBlock","present_trial","65","1644","yes_3","im0000063.jpg","N_1.png","1","N_2.png","2","N_3.png","3","N_4.png","4","Y_1.png","1","Y_2.png","2","Y_3.png","3","Y_4.png","4","confidence.png","1","guessing.png","2","respond_yes.png","3","respond_no.png","4","Word 30 of 40","1","Image 1 of 5","1","grey","16"
"A222R4PNCF08OF","testBlock","centre_mouse","66","536","reveal","im0000063.jpg","N_1.png","1","N_2.png","2","N_3.png","3","N_4.png","4","Y_1.png","1","Y_2.png","2","Y_3.png","3","Y_4.png","4","confidence.png","1","guessing.png","2","respond_yes.png","3","respond_no.png","4","Word 30 of 40","1","Image 1 of 5","1","reveal.png","5"
"A222R4PNCF08OF","testBlock","present_trial","67","1252","yes_3","im0000063.jpg","N_1.png","1","N_2.png","2","N_3.png","3","N_4.png","4","Y_1.png","1","Y_2.png","2","Y_3.png","3","Y_4.png","4","confidence.png","1","guessing.png","2","respond_yes.png","3","respond_no.png","4","Word 31 of 40","1","Image 1 of 5","1","family","8"
"A222R4PNCF08OF","testBlock","centre_mouse","68","488","reveal","im0000063.jpg","N_1.png","1","N_2.png","2","N_3.png","3","N_4.png","4","Y_1.png","1","Y_2.png","2","Y_3.png","3","Y_4.png","4","confidence.png","1","guessing.png","2","respond_yes.png","3","respond_no.png","4","Word 31 of 40","1","Image 1 of 5","1","reveal.png","5"
"A222R4PNCF08OF","testBlock","present_trial","69","932","yes_4","im0000063.jpg","N_1.png","1","N_2.png","2","N_3.png","3","N_4.png","4","Y_1.png","1","Y_2.png","2","Y_3.png","3","Y_4.png","4","confidence.png","1","guessing.png","2","respond_yes.png","3","respond_no.png","4","Word 32 of 40","1","Image 1 of 5","1","hippo","2"
"A222R4PNCF08OF","testBlock","centre_mouse","70","476","reveal","im0000063.jpg","N_1.png","1","N_2.png","2","N_3.png","3","N_4.png","4","Y_1.png","1","Y_2.png","2","Y_3.png","3","Y_4.png","4","confidence.png","1","guessing.png","2","respond_yes.png","3","respond_no.png","4","Word 32 of 40","1","Image 1 of 5","1","reveal.png","5"
"A222R4PNCF08OF","testBlock","absent_trial","71","1853","no_2","im0000063.jpg","N_1.png","1","N_2.png","2","N_3.png","3","N_4.png","4","Y_1.png","1","Y_2.png","2","Y_3.png","3","Y_4.png","4","confidence.png","1","guessing.png","2","respond_yes.png","3","respond_no.png","4","Word 33 of 40","1","Image 1 of 5","1","confidence","15"
"A222R4PNCF08OF","testBlock","centre_mouse","72","930","reveal","im0000063.jpg","N_1.png","1","N_2.png","2","N_3.png","3","N_4.png","4","Y_1.png","1","Y_2.png","2","Y_3.png","3","Y_4.png","4","confidence.png","1","guessing.png","2","respond_yes.png","3","respond_no.png","4","Word 33 of 40","1","Image 1 of 5","1","reveal.png","5"
"A222R4PNCF08OF","testBlock","absent_trial","73","1334","no_4","im0000063.jpg","N_1.png","1","N_2.png","2","N_3.png","3","N_4.png","4","Y_1.png","1","Y_2.png","2","Y_3.png","3","Y_4.png","4","confidence.png","1","guessing.png","2","respond_yes.png","3","respond_no.png","4","Word 34 of 40","1","Image 1 of 5","1","hike","12"
"A222R4PNCF08OF","testBlock","centre_mouse","74","566","reveal","im0000063.jpg","N_1.png","1","N_2.png","2","N_3.png","3","N_4.png","4","Y_1.png","1","Y_2.png","2","Y_3.png","3","Y_4.png","4","confidence.png","1","guessing.png","2","respond_yes.png","3","respond_no.png","4","Word 34 of 40","1","Image 1 of 5","1","reveal.png","5"
"A222R4PNCF08OF","testBlock","absent_trial","75","1227","yes_2","im0000063.jpg","N_1.png","1","N_2.png","2","N_3.png","3","N_4.png","4","Y_1.png","1","Y_2.png","2","Y_3.png","3","Y_4.png","4","confidence.png","1","guessing.png","2","respond_yes.png","3","respond_no.png","4","Word 35 of 40","1","Image 1 of 5","1","green","19"
"A222R4PNCF08OF","testBlock","centre_mouse","76","529","reveal","im0000063.jpg","N_1.png","1","N_2.png","2","N_3.png","3","N_4.png","4","Y_1.png","1","Y_2.png","2","Y_3.png","3","Y_4.png","4","confidence.png","1","guessing.png","2","respond_yes.png","3","respond_no.png","4","Word 35 of 40","1","Image 1 of 5","1","reveal.png","5"
"A222R4PNCF08OF","testBlock","absent_trial","77","1381","no_4","im0000063.jpg","N_1.png","1","N_2.png","2","N_3.png","3","N_4.png","4","Y_1.png","1","Y_2.png","2","Y_3.png","3","Y_4.png","4","confidence.png","1","guessing.png","2","respond_yes.png","3","respond_no.png","4","Word 36 of 40","1","Image 1 of 5","1","ball","18"
"A222R4PNCF08OF","testBlock","centre_mouse","78","485","reveal","im0000063.jpg","N_1.png","1","N_2.png","2","N_3.png","3","N_4.png","4","Y_1.png","1","Y_2.png","2","Y_3.png","3","Y_4.png","4","confidence.png","1","guessing.png","2","respond_yes.png","3","respond_no.png","4","Word 36 of 40","1","Image 1 of 5","1","reveal.png","5"
"A222R4PNCF08OF","testBlock","present_trial","79","2146","yes_4","im0000063.jpg","N_1.png","1","N_2.png","2","N_3.png","3","N_4.png","4","Y_1.png","1","Y_2.png","2","Y_3.png","3","Y_4.png","4","confidence.png","1","guessing.png","2","respond_yes.png","3","respond_no.png","4","Word 37 of 40","1","Image 1 of 5","1","nature","14"
"A222R4PNCF08OF","testBlock","centre_mouse","80","899","reveal","im0000063.jpg","N_1.png","1","N_2.png","2","N_3.png","3","N_4.png","4","Y_1.png","1","Y_2.png","2","Y_3.png","3","Y_4.png","4","confidence.png","1","guessing.png","2","respond_yes.png","3","respond_no.png","4","Word 37 of 40","1","Image 1 of 5","1","reveal.png","5"
"A222R4PNCF08OF","testBlock","absent_trial","81","6311","no_4","im0000063.jpg","N_1.png","1","N_2.png","2","N_3.png","3","N_4.png","4","Y_1.png","1","Y_2.png","2","Y_3.png","3","Y_4.png","4","confidence.png","1","guessing.png","2","respond_yes.png","3","respond_no.png","4","Word 38 of 40","1","Image 1 of 5","1","coastline","17"
"A222R4PNCF08OF","testBlock","centre_mouse","82","1411","reveal","im0000063.jpg","N_1.png","1","N_2.png","2","N_3.png","3","N_4.png","4","Y_1.png","1","Y_2.png","2","Y_3.png","3","Y_4.png","4","confidence.png","1","guessing.png","2","respond_yes.png","3","respond_no.png","4","Word 38 of 40","1","Image 1 of 5","1","reveal.png","5"
"A222R4PNCF08OF","testBlock","present_trial","83","1134","yes_3","im0000063.jpg","N_1.png","1","N_2.png","2","N_3.png","3","N_4.png","4","Y_1.png","1","Y_2.png","2","Y_3.png","3","Y_4.png","4","confidence.png","1","guessing.png","2","respond_yes.png","3","respond_no.png","4","Word 39 of 40","1","Image 1 of 5","1","hippopotamus","12"
"A222R4PNCF08OF","testBlock","centre_mouse","84","807","reveal","im0000063.jpg","N_1.png","1","N_2.png","2","N_3.png","3","N_4.png","4","Y_1.png","1","Y_2.png","2","Y_3.png","3","Y_4.png","4","confidence.png","1","guessing.png","2","respond_yes.png","3","respond_no.png","4","Word 39 of 40","1","Image 1 of 5","1","reveal.png","5"
"A222R4PNCF08OF","testBlock","absent_trial","85","1195","yes_2","im0000063.jpg","N_1.png","1","N_2.png","2","N_3.png","3","N_4.png","4","Y_1.png","1","Y_2.png","2","Y_3.png","3","Y_4.png","4","confidence.png","1","guessing.png","2","respond_yes.png","3","respond_no.png","4","Word 40 of 40","1","Image 1 of 5","1","life","4"
"A222R4PNCF08OF","testBlock","centre_mouse","86","433","reveal","im0000063.jpg","N_1.png","1","N_2.png","2","N_3.png","3","N_4.png","4","Y_1.png","1","Y_2.png","2","Y_3.png","3","Y_4.png","4","confidence.png","1","guessing.png","2","respond_yes.png","3","respond_no.png","4","Word 40 of 40","1","Image 1 of 5","1","reveal.png","5"
"A222R4PNCF08OF","testBlock","test","1","1","0","im0000063.jpg","+","1","im0000041.jpg","1","mask1.jpg","1","mask1.jpg","1","mask5.jpg","5","mask5.jpg","5","mask3.jpg","3","0","0","0","0","0","0","0","0","0","0","0","0","0","0","0","0"
"A222R4PNCF08OF","testBlock","centre_mouse","2","2425","reveal","im0000063.jpg","N_1.png","1","N_2.png","2","N_3.png","3","N_4.png","4","Y_1.png","1","Y_2.png","2","Y_3.png","3","Y_4.png","4","confidence.png","1","guessing.png","2","respond_yes.png","3","respond_no.png","4","Word 0 of 40","1","Image 2 of 5","1","reveal.png","5"
"A222R4PNCF08OF","testBlock","present_trial","3","1820","no_2","im0000041.jpg","N_1.png","1","N_2.png","2","N_3.png","3","N_4.png","4","Y_1.png","1","Y_2.png","2","Y_3.png","3","Y_4.png","4","confidence.png","1","guessing.png","2","respond_yes.png","3","respond_no.png","4","Word 1 of 40","1","Image 2 of 5","1","water","9"
"A222R4PNCF08OF","testBlock","centre_mouse","4","459","reveal","im0000041.jpg","N_1.png","1","N_2.png","2","N_3.png","3","N_4.png","4","Y_1.png","1","Y_2.png","2","Y_3.png","3","Y_4.png","4","confidence.png","1","guessing.png","2","respond_yes.png","3","respond_no.png","4","Word 1 of 40","1","Image 2 of 5","1","reveal.png","5"
"A222R4PNCF08OF","testBlock","absent_trial","5","1541","no_4","im0000041.jpg","N_1.png","1","N_2.png","2","N_3.png","3","N_4.png","4","Y_1.png","1","Y_2.png","2","Y_3.png","3","Y_4.png","4","confidence.png","1","guessing.png","2","respond_yes.png","3","respond_no.png","4","Word 2 of 40","1","Image 2 of 5","1","smoke","18"
"A222R4PNCF08OF","testBlock","centre_mouse","6","521","reveal","im0000041.jpg","N_1.png","1","N_2.png","2","N_3.png","3","N_4.png","4","Y_1.png","1","Y_2.png","2","Y_3.png","3","Y_4.png","4","confidence.png","1","guessing.png","2","respond_yes.png","3","respond_no.png","4","Word 2 of 40","1","Image 2 of 5","1","reveal.png","5"
"A222R4PNCF08OF","testBlock","present_trial","7","1114","yes_2","im0000041.jpg","N_1.png","1","N_2.png","2","N_3.png","3","N_4.png","4","Y_1.png","1","Y_2.png","2","Y_3.png","3","Y_4.png","4","confidence.png","1","guessing.png","2","respond_yes.png","3","respond_no.png","4","Word 3 of 40","1","Image 2 of 5","1","pasture","3"
"A222R4PNCF08OF","testBlock","centre_mouse","8","460","reveal","im0000041.jpg","N_1.png","1","N_2.png","2","N_3.png","3","N_4.png","4","Y_1.png","1","Y_2.png","2","Y_3.png","3","Y_4.png","4","confidence.png","1","guessing.png","2","respond_yes.png","3","respond_no.png","4","Word 3 of 40","1","Image 2 of 5","1","reveal.png","5"
"A222R4PNCF08OF","testBlock","present_trial","9","1414","yes_1","im0000041.jpg","N_1.png","1","N_2.png","2","N_3.png","3","N_4.png","4","Y_1.png","1","Y_2.png","2","Y_3.png","3","Y_4.png","4","confidence.png","1","guessing.png","2","respond_yes.png","3","respond_no.png","4","Word 4 of 40","1","Image 2 of 5","1","brown","14"
"A222R4PNCF08OF","testBlock","centre_mouse","10","452","reveal","im0000041.jpg","N_1.png","1","N_2.png","2","N_3.png","3","N_4.png","4","Y_1.png","1","Y_2.png","2","Y_3.png","3","Y_4.png","4","confidence.png","1","guessing.png","2","respond_yes.png","3","respond_no.png","4","Word 4 of 40","1","Image 2 of 5","1","reveal.png","5"
"A222R4PNCF08OF","testBlock","present_trial","11","1184","yes_1","im0000041.jpg","N_1.png","1","N_2.png","2","N_3.png","3","N_4.png","4","Y_1.png","1","Y_2.png","2","Y_3.png","3","Y_4.png","4","confidence.png","1","guessing.png","2","respond_yes.png","3","respond_no.png","4","Word 5 of 40","1","Image 2 of 5","1","fence","6"
"A222R4PNCF08OF","testBlock","centre_mouse","12","439","reveal","im0000041.jpg","N_1.png","1","N_2.png","2","N_3.png","3","N_4.png","4","Y_1.png","1","Y_2.png","2","Y_3.png","3","Y_4.png","4","confidence.png","1","guessing.png","2","respond_yes.png","3","respond_no.png","4","Word 5 of 40","1","Image 2 of 5","1","reveal.png","5"
"A222R4PNCF08OF","testBlock","present_trial","13","991","yes_1","im0000041.jpg","N_1.png","1","N_2.png","2","N_3.png","3","N_4.png","4","Y_1.png","1","Y_2.png","2","Y_3.png","3","Y_4.png","4","confidence.png","1","guessing.png","2","respond_yes.png","3","respond_no.png","4","Word 6 of 40","1","Image 2 of 5","1","tree","16"
"A222R4PNCF08OF","testBlock","centre_mouse","14","741","reveal","im0000041.jpg","N_1.png","1","N_2.png","2","N_3.png","3","N_4.png","4","Y_1.png","1","Y_2.png","2","Y_3.png","3","Y_4.png","4","confidence.png","1","guessing.png","2","respond_yes.png","3","respond_no.png","4","Word 6 of 40","1","Image 2 of 5","1","reveal.png","5"
"A222R4PNCF08OF","testBlock","present_trial","15","1147","yes_2","im0000041.jpg","N_1.png","1","N_2.png","2","N_3.png","3","N_4.png","4","Y_1.png","1","Y_2.png","2","Y_3.png","3","Y_4.png","4","confidence.png","1","guessing.png","2","respond_yes.png","3","respond_no.png","4","Word 7 of 40","1","Image 2 of 5","1","sunny","7"
"A222R4PNCF08OF","testBlock","centre_mouse","16","764","reveal","im0000041.jpg","N_1.png","1","N_2.png","2","N_3.png","3","N_4.png","4","Y_1.png","1","Y_2.png","2","Y_3.png","3","Y_4.png","4","confidence.png","1","guessing.png","2","respond_yes.png","3","respond_no.png","4","Word 7 of 40","1","Image 2 of 5","1","reveal.png","5"
"A222R4PNCF08OF","testBlock","absent_trial","17","1438","no_4","im0000041.jpg","N_1.png","1","N_2.png","2","N_3.png","3","N_4.png","4","Y_1.png","1","Y_2.png","2","Y_3.png","3","Y_4.png","4","confidence.png","1","guessing.png","2","respond_yes.png","3","respond_no.png","4","Word 8 of 40","1","Image 2 of 5","1","watercraft","10"
"A222R4PNCF08OF","testBlock","centre_mouse","18","468","reveal","im0000041.jpg","N_1.png","1","N_2.png","2","N_3.png","3","N_4.png","4","Y_1.png","1","Y_2.png","2","Y_3.png","3","Y_4.png","4","confidence.png","1","guessing.png","2","respond_yes.png","3","respond_no.png","4","Word 8 of 40","1","Image 2 of 5","1","reveal.png","5"
"A222R4PNCF08OF","testBlock","absent_trial","19","2533","yes_2","im0000041.jpg","N_1.png","1","N_2.png","2","N_3.png","3","N_4.png","4","Y_1.png","1","Y_2.png","2","Y_3.png","3","Y_4.png","4","confidence.png","1","guessing.png","2","respond_yes.png","3","respond_no.png","4","Word 9 of 40","1","Image 2 of 5","1","large","8"
"A222R4PNCF08OF","testBlock","centre_mouse","20","527","reveal","im0000041.jpg","N_1.png","1","N_2.png","2","N_3.png","3","N_4.png","4","Y_1.png","1","Y_2.png","2","Y_3.png","3","Y_4.png","4","confidence.png","1","guessing.png","2","respond_yes.png","3","respond_no.png","4","Word 9 of 40","1","Image 2 of 5","1","reveal.png","5"
"A222R4PNCF08OF","testBlock","absent_trial","21","1899","no_4","im0000041.jpg","N_1.png","1","N_2.png","2","N_3.png","3","N_4.png","4","Y_1.png","1","Y_2.png","2","Y_3.png","3","Y_4.png","4","confidence.png","1","guessing.png","2","respond_yes.png","3","respond_no.png","4","Word 10 of 40","1","Image 2 of 5","1","crow","2"
"A222R4PNCF08OF","testBlock","centre_mouse","22","494","reveal","im0000041.jpg","N_1.png","1","N_2.png","2","N_3.png","3","N_4.png","4","Y_1.png","1","Y_2.png","2","Y_3.png","3","Y_4.png","4","confidence.png","1","guessing.png","2","respond_yes.png","3","respond_no.png","4","Word 10 of 40","1","Image 2 of 5","1","reveal.png","5"
"A222R4PNCF08OF","testBlock","present_trial","23","1662","yes_1","im0000041.jpg","N_1.png","1","N_2.png","2","N_3.png","3","N_4.png","4","Y_1.png","1","Y_2.png","2","Y_3.png","3","Y_4.png","4","confidence.png","1","guessing.png","2","respond_yes.png","3","respond_no.png","4","Word 11 of 40","1","Image 2 of 5","1","horse","5"
"A222R4PNCF08OF","testBlock","centre_mouse","24","522","reveal","im0000041.jpg","N_1.png","1","N_2.png","2","N_3.png","3","N_4.png","4","Y_1.png","1","Y_2.png","2","Y_3.png","3","Y_4.png","4","confidence.png","1","guessing.png","2","respond_yes.png","3","respond_no.png","4","Word 11 of 40","1","Image 2 of 5","1","reveal.png","5"
"A222R4PNCF08OF","testBlock","absent_trial","25","1726","yes_4","im0000041.jpg","N_1.png","1","N_2.png","2","N_3.png","3","N_4.png","4","Y_1.png","1","Y_2.png","2","Y_3.png","3","Y_4.png","4","confidence.png","1","guessing.png","2","respond_yes.png","3","respond_no.png","4","Word 12 of 40","1","Image 2 of 5","1","sky","13"
"A222R4PNCF08OF","testBlock","centre_mouse","26","800","reveal","im0000041.jpg","N_1.png","1","N_2.png","2","N_3.png","3","N_4.png","4","Y_1.png","1","Y_2.png","2","Y_3.png","3","Y_4.png","4","confidence.png","1","guessing.png","2","respond_yes.png","3","respond_no.png","4","Word 12 of 40","1","Image 2 of 5","1","reveal.png","5"
"A222R4PNCF08OF","testBlock","absent_trial","27","1160","yes_3","im0000041.jpg","N_1.png","1","N_2.png","2","N_3.png","3","N_4.png","4","Y_1.png","1","Y_2.png","2","Y_3.png","3","Y_4.png","4","confidence.png","1","guessing.png","2","respond_yes.png","3","respond_no.png","4","Word 13 of 40","1","Image 2 of 5","1","day","4"
"A222R4PNCF08OF","testBlock","centre_mouse","28","440","reveal","im0000041.jpg","N_1.png","1","N_2.png","2","N_3.png","3","N_4.png","4","Y_1.png","1","Y_2.png","2","Y_3.png","3","Y_4.png","4","confidence.png","1","guessing.png","2","respond_yes.png","3","respond_no.png","4","Word 13 of 40","1","Image 2 of 5","1","reveal.png","5"
"A222R4PNCF08OF","testBlock","absent_trial","29","1132","no_4","im0000041.jpg","N_1.png","1","N_2.png","2","N_3.png","3","N_4.png","4","Y_1.png","1","Y_2.png","2","Y_3.png","3","Y_4.png","4","confidence.png","1","guessing.png","2","respond_yes.png","3","respond_no.png","4","Word 14 of 40","1","Image 2 of 5","1","blanket","1"
"A222R4PNCF08OF","testBlock","centre_mouse","30","637","reveal","im0000041.jpg","N_1.png","1","N_2.png","2","N_3.png","3","N_4.png","4","Y_1.png","1","Y_2.png","2","Y_3.png","3","Y_4.png","4","confidence.png","1","guessing.png","2","respond_yes.png","3","respond_no.png","4","Word 14 of 40","1","Image 2 of 5","1","reveal.png","5"
"A222R4PNCF08OF","testBlock","present_trial","31","1657","yes_2","im0000041.jpg","N_1.png","1","N_2.png","2","N_3.png","3","N_4.png","4","Y_1.png","1","Y_2.png","2","Y_3.png","3","Y_4.png","4","confidence.png","1","guessing.png","2","respond_yes.png","3","respond_no.png","4","Word 15 of 40","1","Image 2 of 5","1","dirt","10"
"A222R4PNCF08OF","testBlock","centre_mouse","32","692","reveal","im0000041.jpg","N_1.png","1","N_2.png","2","N_3.png","3","N_4.png","4","Y_1.png","1","Y_2.png","2","Y_3.png","3","Y_4.png","4","confidence.png","1","guessing.png","2","respond_yes.png","3","respond_no.png","4","Word 15 of 40","1","Image 2 of 5","1","reveal.png","5"
"A222R4PNCF08OF","testBlock","absent_trial","33","1394","no_4","im0000041.jpg","N_1.png","1","N_2.png","2","N_3.png","3","N_4.png","4","Y_1.png","1","Y_2.png","2","Y_3.png","3","Y_4.png","4","confidence.png","1","guessing.png","2","respond_yes.png","3","respond_no.png","4","Word 16 of 40","1","Image 2 of 5","1","yellow","19"
"A222R4PNCF08OF","testBlock","centre_mouse","34","608","reveal","im0000041.jpg","N_1.png","1","N_2.png","2","N_3.png","3","N_4.png","4","Y_1.png","1","Y_2.png","2","Y_3.png","3","Y_4.png","4","confidence.png","1","guessing.png","2","respond_yes.png","3","respond_no.png","4","Word 16 of 40","1","Image 2 of 5","1","reveal.png","5"
"A222R4PNCF08OF","testBlock","absent_trial","35","1380","yes_3","im0000041.jpg","N_1.png","1","N_2.png","2","N_3.png","3","N_4.png","4","Y_1.png","1","Y_2.png","2","Y_3.png","3","Y_4.png","4","confidence.png","1","guessing.png","2","respond_yes.png","3","respond_no.png","4","Word 17 of 40","1","Image 2 of 5","1","field","17"
"A222R4PNCF08OF","testBlock","centre_mouse","36","572","reveal","im0000041.jpg","N_1.png","1","N_2.png","2","N_3.png","3","N_4.png","4","Y_1.png","1","Y_2.png","2","Y_3.png","3","Y_4.png","4","confidence.png","1","guessing.png","2","respond_yes.png","3","respond_no.png","4","Word 17 of 40","1","Image 2 of 5","1","reveal.png","5"
"A222R4PNCF08OF","testBlock","present_trial","37","2066","yes_2","im0000041.jpg","N_1.png","1","N_2.png","2","N_3.png","3","N_4.png","4","Y_1.png","1","Y_2.png","2","Y_3.png","3","Y_4.png","4","confidence.png","1","guessing.png","2","respond_yes.png","3","respond_no.png","4","Word 18 of 40","1","Image 2 of 5","1","cow","1"
"A222R4PNCF08OF","testBlock","centre_mouse","38","413","reveal","im0000041.jpg","N_1.png","1","N_2.png","2","N_3.png","3","N_4.png","4","Y_1.png","1","Y_2.png","2","Y_3.png","3","Y_4.png","4","confidence.png","1","guessing.png","2","respond_yes.png","3","respond_no.png","4","Word 18 of 40","1","Image 2 of 5","1","reveal.png","5"
"A222R4PNCF08OF","testBlock","catch_absent_trial","39","1477","no_2","im0000041.jpg","N_1.png","1","N_2.png","2","N_3.png","3","N_4.png","4","Y_1.png","1","Y_2.png","2","Y_3.png","3","Y_4.png","4","confidence.png","1","guessing.png","2","respond_yes.png","3","respond_no.png","4","Word 18 of 40","1","Image 2 of 5","1","PRESS: No 2","2"
"A222R4PNCF08OF","testBlock","centre_mouse","40","792","reveal","im0000041.jpg","N_1.png","1","N_2.png","2","N_3.png","3","N_4.png","4","Y_1.png","1","Y_2.png","2","Y_3.png","3","Y_4.png","4","confidence.png","1","guessing.png","2","respond_yes.png","3","respond_no.png","4","Word 18 of 40","1","Image 2 of 5","1","reveal.png","5"
"A222R4PNCF08OF","testBlock","absent_trial","41","1046","no_4","im0000041.jpg","N_1.png","1","N_2.png","2","N_3.png","3","N_4.png","4","Y_1.png","1","Y_2.png","2","Y_3.png","3","Y_4.png","4","confidence.png","1","guessing.png","2","respond_yes.png","3","respond_no.png","4","Word 19 of 40","1","Image 2 of 5","1","wall","3"
"A222R4PNCF08OF","testBlock","centre_mouse","42","763","reveal","im0000041.jpg","N_1.png","1","N_2.png","2","N_3.png","3","N_4.png","4","Y_1.png","1","Y_2.png","2","Y_3.png","3","Y_4.png","4","confidence.png","1","guessing.png","2","respond_yes.png","3","respond_no.png","4","Word 19 of 40","1","Image 2 of 5","1","reveal.png","5"
"A222R4PNCF08OF","testBlock","present_trial","43","1100","no_4","im0000041.jpg","N_1.png","1","N_2.png","2","N_3.png","3","N_4.png","4","Y_1.png","1","Y_2.png","2","Y_3.png","3","Y_4.png","4","confidence.png","1","guessing.png","2","respond_yes.png","3","respond_no.png","4","Word 20 of 40","1","Image 2 of 5","1","white-fence","17"
"A222R4PNCF08OF","testBlock","centre_mouse","44","711","reveal","im0000041.jpg","N_1.png","1","N_2.png","2","N_3.png","3","N_4.png","4","Y_1.png","1","Y_2.png","2","Y_3.png","3","Y_4.png","4","confidence.png","1","guessing.png","2","respond_yes.png","3","respond_no.png","4","Word 20 of 40","1","Image 2 of 5","1","reveal.png","5"
"A222R4PNCF08OF","testBlock","absent_trial","45","815","no_4","im0000041.jpg","N_1.png","1","N_2.png","2","N_3.png","3","N_4.png","4","Y_1.png","1","Y_2.png","2","Y_3.png","3","Y_4.png","4","confidence.png","1","guessing.png","2","respond_yes.png","3","respond_no.png","4","Word 21 of 40","1","Image 2 of 5","1","child","7"
"A222R4PNCF08OF","testBlock","centre_mouse","46","357","reveal","im0000041.jpg","N_1.png","1","N_2.png","2","N_3.png","3","N_4.png","4","Y_1.png","1","Y_2.png","2","Y_3.png","3","Y_4.png","4","confidence.png","1","guessing.png","2","respond_yes.png","3","respond_no.png","4","Word 21 of 40","1","Image 2 of 5","1","reveal.png","5"
"A222R4PNCF08OF","testBlock","present_trial","47","1362","no_4","im0000041.jpg","N_1.png","1","N_2.png","2","N_3.png","3","N_4.png","4","Y_1.png","1","Y_2.png","2","Y_3.png","3","Y_4.png","4","confidence.png","1","guessing.png","2","respond_yes.png","3","respond_no.png","4","Word 22 of 40","1","Image 2 of 5","1","run","13"
"A222R4PNCF08OF","testBlock","centre_mouse","48","363","reveal","im0000041.jpg","N_1.png","1","N_2.png","2","N_3.png","3","N_4.png","4","Y_1.png","1","Y_2.png","2","Y_3.png","3","Y_4.png","4","confidence.png","1","guessing.png","2","respond_yes.png","3","respond_no.png","4","Word 22 of 40","1","Image 2 of 5","1","reveal.png","5"
"A222R4PNCF08OF","testBlock","absent_trial","49","748","no_4","im0000041.jpg","N_1.png","1","N_2.png","2","N_3.png","3","N_4.png","4","Y_1.png","1","Y_2.png","2","Y_3.png","3","Y_4.png","4","confidence.png","1","guessing.png","2","respond_yes.png","3","respond_no.png","4","Word 23 of 40","1","Image 2 of 5","1","chisel","20"
"A222R4PNCF08OF","testBlock","centre_mouse","50","325","reveal","im0000041.jpg","N_1.png","1","N_2.png","2","N_3.png","3","N_4.png","4","Y_1.png","1","Y_2.png","2","Y_3.png","3","Y_4.png","4","confidence.png","1","guessing.png","2","respond_yes.png","3","respond_no.png","4","Word 23 of 40","1","Image 2 of 5","1","reveal.png","5"
"A222R4PNCF08OF","testBlock","present_trial","51","1212","yes_4","im0000041.jpg","N_1.png","1","N_2.png","2","N_3.png","3","N_4.png","4","Y_1.png","1","Y_2.png","2","Y_3.png","3","Y_4.png","4","confidence.png","1","guessing.png","2","respond_yes.png","3","respond_no.png","4","Word 24 of 40","1","Image 2 of 5","1","outside","8"
"A222R4PNCF08OF","testBlock","centre_mouse","52","442","reveal","im0000041.jpg","N_1.png","1","N_2.png","2","N_3.png","3","N_4.png","4","Y_1.png","1","Y_2.png","2","Y_3.png","3","Y_4.png","4","confidence.png","1","guessing.png","2","respond_yes.png","3","respond_no.png","4","Word 24 of 40","1","Image 2 of 5","1","reveal.png","5"
"A222R4PNCF08OF","testBlock","absent_trial","53","1021","no_4","im0000041.jpg","N_1.png","1","N_2.png","2","N_3.png","3","N_4.png","4","Y_1.png","1","Y_2.png","2","Y_3.png","3","Y_4.png","4","confidence.png","1","guessing.png","2","respond_yes.png","3","respond_no.png","4","Word 25 of 40","1","Image 2 of 5","1","platter","16"
"A222R4PNCF08OF","testBlock","centre_mouse","54","563","reveal","im0000041.jpg","N_1.png","1","N_2.png","2","N_3.png","3","N_4.png","4","Y_1.png","1","Y_2.png","2","Y_3.png","3","Y_4.png","4","confidence.png","1","guessing.png","2","respond_yes.png","3","respond_no.png","4","Word 25 of 40","1","Image 2 of 5","1","reveal.png","5"
"A222R4PNCF08OF","testBlock","present_trial","55","1033","yes_4","im0000041.jpg","N_1.png","1","N_2.png","2","N_3.png","3","N_4.png","4","Y_1.png","1","Y_2.png","2","Y_3.png","3","Y_4.png","4","confidence.png","1","guessing.png","2","respond_yes.png","3","respond_no.png","4","Word 26 of 40","1","Image 2 of 5","1","outdoor","12"
"A222R4PNCF08OF","testBlock","centre_mouse","56","464","reveal","im0000041.jpg","N_1.png","1","N_2.png","2","N_3.png","3","N_4.png","4","Y_1.png","1","Y_2.png","2","Y_3.png","3","Y_4.png","4","confidence.png","1","guessing.png","2","respond_yes.png","3","respond_no.png","4","Word 26 of 40","1","Image 2 of 5","1","reveal.png","5"
"A222R4PNCF08OF","testBlock","catch_absent_trial","57","1485","no_4","im0000041.jpg","N_1.png","1","N_2.png","2","N_3.png","3","N_4.png","4","Y_1.png","1","Y_2.png","2","Y_3.png","3","Y_4.png","4","confidence.png","1","guessing.png","2","respond_yes.png","3","respond_no.png","4","Word 26 of 40","1","Image 2 of 5","1","PRESS: No 4","4"
"A222R4PNCF08OF","testBlock","centre_mouse","58","809","reveal","im0000041.jpg","N_1.png","1","N_2.png","2","N_3.png","3","N_4.png","4","Y_1.png","1","Y_2.png","2","Y_3.png","3","Y_4.png","4","confidence.png","1","guessing.png","2","respond_yes.png","3","respond_no.png","4","Word 26 of 40","1","Image 2 of 5","1","reveal.png","5"
"A222R4PNCF08OF","testBlock","present_trial","59","1988","yes_1","im0000041.jpg","N_1.png","1","N_2.png","2","N_3.png","3","N_4.png","4","Y_1.png","1","Y_2.png","2","Y_3.png","3","Y_4.png","4","confidence.png","1","guessing.png","2","respond_yes.png","3","respond_no.png","4","Word 27 of 40","1","Image 2 of 5","1","relax","20"
"A222R4PNCF08OF","testBlock","centre_mouse","60","743","reveal","im0000041.jpg","N_1.png","1","N_2.png","2","N_3.png","3","N_4.png","4","Y_1.png","1","Y_2.png","2","Y_3.png","3","Y_4.png","4","confidence.png","1","guessing.png","2","respond_yes.png","3","respond_no.png","4","Word 27 of 40","1","Image 2 of 5","1","reveal.png","5"
"A222R4PNCF08OF","testBlock","present_trial","61","1047","yes_1","im0000041.jpg","N_1.png","1","N_2.png","2","N_3.png","3","N_4.png","4","Y_1.png","1","Y_2.png","2","Y_3.png","3","Y_4.png","4","confidence.png","1","guessing.png","2","respond_yes.png","3","respond_no.png","4","Word 28 of 40","1","Image 2 of 5","1","peaceful","19"
"A222R4PNCF08OF","testBlock","centre_mouse","62","579","reveal","im0000041.jpg","N_1.png","1","N_2.png","2","N_3.png","3","N_4.png","4","Y_1.png","1","Y_2.png","2","Y_3.png","3","Y_4.png","4","confidence.png","1","guessing.png","2","respond_yes.png","3","respond_no.png","4","Word 28 of 40","1","Image 2 of 5","1","reveal.png","5"
"A222R4PNCF08OF","testBlock","present_trial","63","1264","yes_2","im0000041.jpg","N_1.png","1","N_2.png","2","N_3.png","3","N_4.png","4","Y_1.png","1","Y_2.png","2","Y_3.png","3","Y_4.png","4","confidence.png","1","guessing.png","2","respond_yes.png","3","respond_no.png","4","Word 29 of 40","1","Image 2 of 5","1","grass","2"
"A222R4PNCF08OF","testBlock","centre_mouse","64","499","reveal","im0000041.jpg","N_1.png","1","N_2.png","2","N_3.png","3","N_4.png","4","Y_1.png","1","Y_2.png","2","Y_3.png","3","Y_4.png","4","confidence.png","1","guessing.png","2","respond_yes.png","3","respond_no.png","4","Word 29 of 40","1","Image 2 of 5","1","reveal.png","5"
"A222R4PNCF08OF","testBlock","present_trial","65","1647","yes_1","im0000041.jpg","N_1.png","1","N_2.png","2","N_3.png","3","N_4.png","4","Y_1.png","1","Y_2.png","2","Y_3.png","3","Y_4.png","4","confidence.png","1","guessing.png","2","respond_yes.png","3","respond_no.png","4","Word 30 of 40","1","Image 2 of 5","1","paddock","15"
"A222R4PNCF08OF","testBlock","centre_mouse","66","1028","reveal","im0000041.jpg","N_1.png","1","N_2.png","2","N_3.png","3","N_4.png","4","Y_1.png","1","Y_2.png","2","Y_3.png","3","Y_4.png","4","confidence.png","1","guessing.png","2","respond_yes.png","3","respond_no.png","4","Word 30 of 40","1","Image 2 of 5","1","reveal.png","5"
"A222R4PNCF08OF","testBlock","absent_trial","67","879","no_4","im0000041.jpg","N_1.png","1","N_2.png","2","N_3.png","3","N_4.png","4","Y_1.png","1","Y_2.png","2","Y_3.png","3","Y_4.png","4","confidence.png","1","guessing.png","2","respond_yes.png","3","respond_no.png","4","Word 31 of 40","1","Image 2 of 5","1","sparrow","14"
"A222R4PNCF08OF","testBlock","centre_mouse","68","370","reveal","im0000041.jpg","N_1.png","1","N_2.png","2","N_3.png","3","N_4.png","4","Y_1.png","1","Y_2.png","2","Y_3.png","3","Y_4.png","4","confidence.png","1","guessing.png","2","respond_yes.png","3","respond_no.png","4","Word 31 of 40","1","Image 2 of 5","1","reveal.png","5"
"A222R4PNCF08OF","testBlock","absent_trial","69","902","yes_4","im0000041.jpg","N_1.png","1","N_2.png","2","N_3.png","3","N_4.png","4","Y_1.png","1","Y_2.png","2","Y_3.png","3","Y_4.png","4","confidence.png","1","guessing.png","2","respond_yes.png","3","respond_no.png","4","Word 32 of 40","1","Image 2 of 5","1","animal","11"
"A222R4PNCF08OF","testBlock","centre_mouse","70","400","reveal","im0000041.jpg","N_1.png","1","N_2.png","2","N_3.png","3","N_4.png","4","Y_1.png","1","Y_2.png","2","Y_3.png","3","Y_4.png","4","confidence.png","1","guessing.png","2","respond_yes.png","3","respond_no.png","4","Word 32 of 40","1","Image 2 of 5","1","reveal.png","5"
"A222R4PNCF08OF","testBlock","absent_trial","71","1086","yes_2","im0000041.jpg","N_1.png","1","N_2.png","2","N_3.png","3","N_4.png","4","Y_1.png","1","Y_2.png","2","Y_3.png","3","Y_4.png","4","confidence.png","1","guessing.png","2","respond_yes.png","3","respond_no.png","4","Word 33 of 40","1","Image 2 of 5","1","light","12"
"A222R4PNCF08OF","testBlock","centre_mouse","72","545","reveal","im0000041.jpg","N_1.png","1","N_2.png","2","N_3.png","3","N_4.png","4","Y_1.png","1","Y_2.png","2","Y_3.png","3","Y_4.png","4","confidence.png","1","guessing.png","2","respond_yes.png","3","respond_no.png","4","Word 33 of 40","1","Image 2 of 5","1","reveal.png","5"
"A222R4PNCF08OF","testBlock","absent_trial","73","961","no_4","im0000041.jpg","N_1.png","1","N_2.png","2","N_3.png","3","N_4.png","4","Y_1.png","1","Y_2.png","2","Y_3.png","3","Y_4.png","4","confidence.png","1","guessing.png","2","respond_yes.png","3","respond_no.png","4","Word 34 of 40","1","Image 2 of 5","1","dome","5"
"A222R4PNCF08OF","testBlock","centre_mouse","74","367","reveal","im0000041.jpg","N_1.png","1","N_2.png","2","N_3.png","3","N_4.png","4","Y_1.png","1","Y_2.png","2","Y_3.png","3","Y_4.png","4","confidence.png","1","guessing.png","2","respond_yes.png","3","respond_no.png","4","Word 34 of 40","1","Image 2 of 5","1","reveal.png","5"
"A222R4PNCF08OF","testBlock","absent_trial","75","867","no_4","im0000041.jpg","N_1.png","1","N_2.png","2","N_3.png","3","N_4.png","4","Y_1.png","1","Y_2.png","2","Y_3.png","3","Y_4.png","4","confidence.png","1","guessing.png","2","respond_yes.png","3","respond_no.png","4","Word 35 of 40","1","Image 2 of 5","1","line","6"
"A222R4PNCF08OF","testBlock","centre_mouse","76","376","reveal","im0000041.jpg","N_1.png","1","N_2.png","2","N_3.png","3","N_4.png","4","Y_1.png","1","Y_2.png","2","Y_3.png","3","Y_4.png","4","confidence.png","1","guessing.png","2","respond_yes.png","3","respond_no.png","4","Word 35 of 40","1","Image 2 of 5","1","reveal.png","5"
"A222R4PNCF08OF","testBlock","absent_trial","77","2052","no_1","im0000041.jpg","N_1.png","1","N_2.png","2","N_3.png","3","N_4.png","4","Y_1.png","1","Y_2.png","2","Y_3.png","3","Y_4.png","4","confidence.png","1","guessing.png","2","respond_yes.png","3","respond_no.png","4","Word 36 of 40","1","Image 2 of 5","1","explore","9"
"A222R4PNCF08OF","testBlock","centre_mouse","78","473","reveal","im0000041.jpg","N_1.png","1","N_2.png","2","N_3.png","3","N_4.png","4","Y_1.png","1","Y_2.png","2","Y_3.png","3","Y_4.png","4","confidence.png","1","guessing.png","2","respond_yes.png","3","respond_no.png","4","Word 36 of 40","1","Image 2 of 5","1","reveal.png","5"
"A222R4PNCF08OF","testBlock","present_trial","79","2031","no_1","im0000041.jpg","N_1.png","1","N_2.png","2","N_3.png","3","N_4.png","4","Y_1.png","1","Y_2.png","2","Y_3.png","3","Y_4.png","4","confidence.png","1","guessing.png","2","respond_yes.png","3","respond_no.png","4","Word 37 of 40","1","Image 2 of 5","1","moose","18"
"A222R4PNCF08OF","testBlock","centre_mouse","80","500","reveal","im0000041.jpg","N_1.png","1","N_2.png","2","N_3.png","3","N_4.png","4","Y_1.png","1","Y_2.png","2","Y_3.png","3","Y_4.png","4","confidence.png","1","guessing.png","2","respond_yes.png","3","respond_no.png","4","Word 37 of 40","1","Image 2 of 5","1","reveal.png","5"
"A222R4PNCF08OF","testBlock","present_trial","81","1037","yes_2","im0000041.jpg","N_1.png","1","N_2.png","2","N_3.png","3","N_4.png","4","Y_1.png","1","Y_2.png","2","Y_3.png","3","Y_4.png","4","confidence.png","1","guessing.png","2","respond_yes.png","3","respond_no.png","4","Word 38 of 40","1","Image 2 of 5","1","green","11"
"A222R4PNCF08OF","testBlock","centre_mouse","82","458","reveal","im0000041.jpg","N_1.png","1","N_2.png","2","N_3.png","3","N_4.png","4","Y_1.png","1","Y_2.png","2","Y_3.png","3","Y_4.png","4","confidence.png","1","guessing.png","2","respond_yes.png","3","respond_no.png","4","Word 38 of 40","1","Image 2 of 5","1","reveal.png","5"
"A222R4PNCF08OF","testBlock","absent_trial","83","1073","no_4","im0000041.jpg","N_1.png","1","N_2.png","2","N_3.png","3","N_4.png","4","Y_1.png","1","Y_2.png","2","Y_3.png","3","Y_4.png","4","confidence.png","1","guessing.png","2","respond_yes.png","3","respond_no.png","4","Word 39 of 40","1","Image 2 of 5","1","castle","15"
"A222R4PNCF08OF","testBlock","centre_mouse","84","453","reveal","im0000041.jpg","N_1.png","1","N_2.png","2","N_3.png","3","N_4.png","4","Y_1.png","1","Y_2.png","2","Y_3.png","3","Y_4.png","4","confidence.png","1","guessing.png","2","respond_yes.png","3","respond_no.png","4","Word 39 of 40","1","Image 2 of 5","1","reveal.png","5"
"A222R4PNCF08OF","testBlock","present_trial","85","1563","yes_2","im0000041.jpg","N_1.png","1","N_2.png","2","N_3.png","3","N_4.png","4","Y_1.png","1","Y_2.png","2","Y_3.png","3","Y_4.png","4","confidence.png","1","guessing.png","2","respond_yes.png","3","respond_no.png","4","Word 40 of 40","1","Image 2 of 5","1","farm","4"
"A222R4PNCF08OF","testBlock","centre_mouse","86","602","reveal","im0000041.jpg","N_1.png","1","N_2.png","2","N_3.png","3","N_4.png","4","Y_1.png","1","Y_2.png","2","Y_3.png","3","Y_4.png","4","confidence.png","1","guessing.png","2","respond_yes.png","3","respond_no.png","4","Word 40 of 40","1","Image 2 of 5","1","reveal.png","5"
"A222R4PNCF08OF","testBlock","test","1","1","0","im0000041.jpg","+","1","im0000050.jpg","2","mask4.jpg","4","mask5.jpg","5","mask1.jpg","1","mask2.jpg","2","mask2.jpg","2","0","0","0","0","0","0","0","0","0","0","0","0","0","0","0","0"
"A222R4PNCF08OF","testBlock","centre_mouse","2","1635","reveal","im0000041.jpg","N_1.png","1","N_2.png","2","N_3.png","3","N_4.png","4","Y_1.png","1","Y_2.png","2","Y_3.png","3","Y_4.png","4","confidence.png","1","guessing.png","2","respond_yes.png","3","respond_no.png","4","Word 0 of 40","1","Image 3 of 5","1","reveal.png","5"
"A222R4PNCF08OF","testBlock","present_trial","3","1845","yes_3","im0000050.jpg","N_1.png","1","N_2.png","2","N_3.png","3","N_4.png","4","Y_1.png","1","Y_2.png","2","Y_3.png","3","Y_4.png","4","confidence.png","1","guessing.png","2","respond_yes.png","3","respond_no.png","4","Word 1 of 40","1","Image 3 of 5","1","cap","12"
"A222R4PNCF08OF","testBlock","centre_mouse","4","482","reveal","im0000050.jpg","N_1.png","1","N_2.png","2","N_3.png","3","N_4.png","4","Y_1.png","1","Y_2.png","2","Y_3.png","3","Y_4.png","4","confidence.png","1","guessing.png","2","respond_yes.png","3","respond_no.png","4","Word 1 of 40","1","Image 3 of 5","1","reveal.png","5"
"A222R4PNCF08OF","testBlock","present_trial","5","916","no_4","im0000050.jpg","N_1.png","1","N_2.png","2","N_3.png","3","N_4.png","4","Y_1.png","1","Y_2.png","2","Y_3.png","3","Y_4.png","4","confidence.png","1","guessing.png","2","respond_yes.png","3","respond_no.png","4","Word 2 of 40","1","Image 3 of 5","1","horse","16"
"A222R4PNCF08OF","testBlock","centre_mouse","6","1020","reveal","im0000050.jpg","N_1.png","1","N_2.png","2","N_3.png","3","N_4.png","4","Y_1.png","1","Y_2.png","2","Y_3.png","3","Y_4.png","4","confidence.png","1","guessing.png","2","respond_yes.png","3","respond_no.png","4","Word 2 of 40","1","Image 3 of 5","1","reveal.png","5"
"A222R4PNCF08OF","testBlock","absent_trial","7","1039","no_4","im0000050.jpg","N_1.png","1","N_2.png","2","N_3.png","3","N_4.png","4","Y_1.png","1","Y_2.png","2","Y_3.png","3","Y_4.png","4","confidence.png","1","guessing.png","2","respond_yes.png","3","respond_no.png","4","Word 3 of 40","1","Image 3 of 5","1","amusement-park","13"
"A222R4PNCF08OF","testBlock","centre_mouse","8","730","reveal","im0000050.jpg","N_1.png","1","N_2.png","2","N_3.png","3","N_4.png","4","Y_1.png","1","Y_2.png","2","Y_3.png","3","Y_4.png","4","confidence.png","1","guessing.png","2","respond_yes.png","3","respond_no.png","4","Word 3 of 40","1","Image 3 of 5","1","reveal.png","5"
"A222R4PNCF08OF","testBlock","absent_trial","9","1410","yes_2","im0000050.jpg","N_1.png","1","N_2.png","2","N_3.png","3","N_4.png","4","Y_1.png","1","Y_2.png","2","Y_3.png","3","Y_4.png","4","confidence.png","1","guessing.png","2","respond_yes.png","3","respond_no.png","4","Word 4 of 40","1","Image 3 of 5","1","smile","12"
"A222R4PNCF08OF","testBlock","centre_mouse","10","433","reveal","im0000050.jpg","N_1.png","1","N_2.png","2","N_3.png","3","N_4.png","4","Y_1.png","1","Y_2.png","2","Y_3.png","3","Y_4.png","4","confidence.png","1","guessing.png","2","respond_yes.png","3","respond_no.png","4","Word 4 of 40","1","Image 3 of 5","1","reveal.png","5"
"A222R4PNCF08OF","testBlock","absent_trial","11","1629","yes_1","im0000050.jpg","N_1.png","1","N_2.png","2","N_3.png","3","N_4.png","4","Y_1.png","1","Y_2.png","2","Y_3.png","3","Y_4.png","4","confidence.png","1","guessing.png","2","respond_yes.png","3","respond_no.png","4","Word 5 of 40","1","Image 3 of 5","1","look","9"
"A222R4PNCF08OF","testBlock","centre_mouse","12","385","reveal","im0000050.jpg","N_1.png","1","N_2.png","2","N_3.png","3","N_4.png","4","Y_1.png","1","Y_2.png","2","Y_3.png","3","Y_4.png","4","confidence.png","1","guessing.png","2","respond_yes.png","3","respond_no.png","4","Word 5 of 40","1","Image 3 of 5","1","reveal.png","5"
"A222R4PNCF08OF","testBlock","absent_trial","13","1268","no_4","im0000050.jpg","N_1.png","1","N_2.png","2","N_3.png","3","N_4.png","4","Y_1.png","1","Y_2.png","2","Y_3.png","3","Y_4.png","4","confidence.png","1","guessing.png","2","respond_yes.png","3","respond_no.png","4","Word 6 of 40","1","Image 3 of 5","1","construction","16"
"A222R4PNCF08OF","testBlock","centre_mouse","14","376","reveal","im0000050.jpg","N_1.png","1","N_2.png","2","N_3.png","3","N_4.png","4","Y_1.png","1","Y_2.png","2","Y_3.png","3","Y_4.png","4","confidence.png","1","guessing.png","2","respond_yes.png","3","respond_no.png","4","Word 6 of 40","1","Image 3 of 5","1","reveal.png","5"
"A222R4PNCF08OF","testBlock","present_trial","15","1006","yes_4","im0000050.jpg","N_1.png","1","N_2.png","2","N_3.png","3","N_4.png","4","Y_1.png","1","Y_2.png","2","Y_3.png","3","Y_4.png","4","confidence.png","1","guessing.png","2","respond_yes.png","3","respond_no.png","4","Word 7 of 40","1","Image 3 of 5","1","market","5"
"A222R4PNCF08OF","testBlock","centre_mouse","16","429","reveal","im0000050.jpg","N_1.png","1","N_2.png","2","N_3.png","3","N_4.png","4","Y_1.png","1","Y_2.png","2","Y_3.png","3","Y_4.png","4","confidence.png","1","guessing.png","2","respond_yes.png","3","respond_no.png","4","Word 7 of 40","1","Image 3 of 5","1","reveal.png","5"
"A222R4PNCF08OF","testBlock","present_trial","17","985","yes_4","im0000050.jpg","N_1.png","1","N_2.png","2","N_3.png","3","N_4.png","4","Y_1.png","1","Y_2.png","2","Y_3.png","3","Y_4.png","4","confidence.png","1","guessing.png","2","respond_yes.png","3","respond_no.png","4","Word 8 of 40","1","Image 3 of 5","1","people","4"
"A222R4PNCF08OF","testBlock","centre_mouse","18","375","reveal","im0000050.jpg","N_1.png","1","N_2.png","2","N_3.png","3","N_4.png","4","Y_1.png","1","Y_2.png","2","Y_3.png","3","Y_4.png","4","confidence.png","1","guessing.png","2","respond_yes.png","3","respond_no.png","4","Word 8 of 40","1","Image 3 of 5","1","reveal.png","5"
"A222R4PNCF08OF","testBlock","present_trial","19","1341","yes_1","im0000050.jpg","N_1.png","1","N_2.png","2","N_3.png","3","N_4.png","4","Y_1.png","1","Y_2.png","2","Y_3.png","3","Y_4.png","4","confidence.png","1","guessing.png","2","respond_yes.png","3","respond_no.png","4","Word 9 of 40","1","Image 3 of 5","1","city","15"
"A222R4PNCF08OF","testBlock","centre_mouse","20","893","reveal","im0000050.jpg","N_1.png","1","N_2.png","2","N_3.png","3","N_4.png","4","Y_1.png","1","Y_2.png","2","Y_3.png","3","Y_4.png","4","confidence.png","1","guessing.png","2","respond_yes.png","3","respond_no.png","4","Word 9 of 40","1","Image 3 of 5","1","reveal.png","5"
"A222R4PNCF08OF","testBlock","absent_trial","21","1010","yes_4","im0000050.jpg","N_1.png","1","N_2.png","2","N_3.png","3","N_4.png","4","Y_1.png","1","Y_2.png","2","Y_3.png","3","Y_4.png","4","confidence.png","1","guessing.png","2","respond_yes.png","3","respond_no.png","4","Word 10 of 40","1","Image 3 of 5","1","person","10"
"A222R4PNCF08OF","testBlock","centre_mouse","22","879","reveal","im0000050.jpg","N_1.png","1","N_2.png","2","N_3.png","3","N_4.png","4","Y_1.png","1","Y_2.png","2","Y_3.png","3","Y_4.png","4","confidence.png","1","guessing.png","2","respond_yes.png","3","respond_no.png","4","Word 10 of 40","1","Image 3 of 5","1","reveal.png","5"
"A222R4PNCF08OF","testBlock","absent_trial","23","1824","yes_1","im0000050.jpg","N_1.png","1","N_2.png","2","N_3.png","3","N_4.png","4","Y_1.png","1","Y_2.png","2","Y_3.png","3","Y_4.png","4","confidence.png","1","guessing.png","2","respond_yes.png","3","respond_no.png","4","Word 11 of 40","1","Image 3 of 5","1","amaze","20"
"A222R4PNCF08OF","testBlock","centre_mouse","24","814","reveal","im0000050.jpg","N_1.png","1","N_2.png","2","N_3.png","3","N_4.png","4","Y_1.png","1","Y_2.png","2","Y_3.png","3","Y_4.png","4","confidence.png","1","guessing.png","2","respond_yes.png","3","respond_no.png","4","Word 11 of 40","1","Image 3 of 5","1","reveal.png","5"
"A222R4PNCF08OF","testBlock","present_trial","25","894","yes_4","im0000050.jpg","N_1.png","1","N_2.png","2","N_3.png","3","N_4.png","4","Y_1.png","1","Y_2.png","2","Y_3.png","3","Y_4.png","4","confidence.png","1","guessing.png","2","respond_yes.png","3","respond_no.png","4","Word 12 of 40","1","Image 3 of 5","1","fruit","2"
"A222R4PNCF08OF","testBlock","centre_mouse","26","712","reveal","im0000050.jpg","N_1.png","1","N_2.png","2","N_3.png","3","N_4.png","4","Y_1.png","1","Y_2.png","2","Y_3.png","3","Y_4.png","4","confidence.png","1","guessing.png","2","respond_yes.png","3","respond_no.png","4","Word 12 of 40","1","Image 3 of 5","1","reveal.png","5"
"A222R4PNCF08OF","testBlock","absent_trial","27","1727","yes_1","im0000050.jpg","N_1.png","1","N_2.png","2","N_3.png","3","N_4.png","4","Y_1.png","1","Y_2.png","2","Y_3.png","3","Y_4.png","4","confidence.png","1","guessing.png","2","respond_yes.png","3","respond_no.png","4","Word 13 of 40","1","Image 3 of 5","1","salesman","15"
"A222R4PNCF08OF","testBlock","centre_mouse","28","441","reveal","im0000050.jpg","N_1.png","1","N_2.png","2","N_3.png","3","N_4.png","4","Y_1.png","1","Y_2.png","2","Y_3.png","3","Y_4.png","4","confidence.png","1","guessing.png","2","respond_yes.png","3","respond_no.png","4","Word 13 of 40","1","Image 3 of 5","1","reveal.png","5"
"A222R4PNCF08OF","testBlock","absent_trial","29","1123","yes_1","im0000050.jpg","N_1.png","1","N_2.png","2","N_3.png","3","N_4.png","4","Y_1.png","1","Y_2.png","2","Y_3.png","3","Y_4.png","4","confidence.png","1","guessing.png","2","respond_yes.png","3","respond_no.png","4","Word 14 of 40","1","Image 3 of 5","1","beauty","2"
"A222R4PNCF08OF","testBlock","centre_mouse","30","894","reveal","im0000050.jpg","N_1.png","1","N_2.png","2","N_3.png","3","N_4.png","4","Y_1.png","1","Y_2.png","2","Y_3.png","3","Y_4.png","4","confidence.png","1","guessing.png","2","respond_yes.png","3","respond_no.png","4","Word 14 of 40","1","Image 3 of 5","1","reveal.png","5"
"A222R4PNCF08OF","testBlock","present_trial","31","796","yes_4","im0000050.jpg","N_1.png","1","N_2.png","2","N_3.png","3","N_4.png","4","Y_1.png","1","Y_2.png","2","Y_3.png","3","Y_4.png","4","confidence.png","1","guessing.png","2","respond_yes.png","3","respond_no.png","4","Word 15 of 40","1","Image 3 of 5","1","person","14"
"A222R4PNCF08OF","testBlock","centre_mouse","32","704","reveal","im0000050.jpg","N_1.png","1","N_2.png","2","N_3.png","3","N_4.png","4","Y_1.png","1","Y_2.png","2","Y_3.png","3","Y_4.png","4","confidence.png","1","guessing.png","2","respond_yes.png","3","respond_no.png","4","Word 15 of 40","1","Image 3 of 5","1","reveal.png","5"
"A222R4PNCF08OF","testBlock","present_trial","33","970","yes_4","im0000050.jpg","N_1.png","1","N_2.png","2","N_3.png","3","N_4.png","4","Y_1.png","1","Y_2.png","2","Y_3.png","3","Y_4.png","4","confidence.png","1","guessing.png","2","respond_yes.png","3","respond_no.png","4","Word 16 of 40","1","Image 3 of 5","1","shop","3"
"A222R4PNCF08OF","testBlock","centre_mouse","34","450","reveal","im0000050.jpg","N_1.png","1","N_2.png","2","N_3.png","3","N_4.png","4","Y_1.png","1","Y_2.png","2","Y_3.png","3","Y_4.png","4","confidence.png","1","guessing.png","2","respond_yes.png","3","respond_no.png","4","Word 16 of 40","1","Image 3 of 5","1","reveal.png","5"
"A222R4PNCF08OF","testBlock","absent_trial","35","1685","no_4","im0000050.jpg","N_1.png","1","N_2.png","2","N_3.png","3","N_4.png","4","Y_1.png","1","Y_2.png","2","Y_3.png","3","Y_4.png","4","confidence.png","1","guessing.png","2","respond_yes.png","3","respond_no.png","4","Word 17 of 40","1","Image 3 of 5","1","climate","18"
"A222R4PNCF08OF","testBlock","centre_mouse","36","783","reveal","im0000050.jpg","N_1.png","1","N_2.png","2","N_3.png","3","N_4.png","4","Y_1.png","1","Y_2.png","2","Y_3.png","3","Y_4.png","4","confidence.png","1","guessing.png","2","respond_yes.png","3","respond_no.png","4","Word 17 of 40","1","Image 3 of 5","1","reveal.png","5"
"A222R4PNCF08OF","testBlock","present_trial","37","870","yes_4","im0000050.jpg","N_1.png","1","N_2.png","2","N_3.png","3","N_4.png","4","Y_1.png","1","Y_2.png","2","Y_3.png","3","Y_4.png","4","confidence.png","1","guessing.png","2","respond_yes.png","3","respond_no.png","4","Word 18 of 40","1","Image 3 of 5","1","human","17"
"A222R4PNCF08OF","testBlock","centre_mouse","38","1484","reveal","im0000050.jpg","N_1.png","1","N_2.png","2","N_3.png","3","N_4.png","4","Y_1.png","1","Y_2.png","2","Y_3.png","3","Y_4.png","4","confidence.png","1","guessing.png","2","respond_yes.png","3","respond_no.png","4","Word 18 of 40","1","Image 3 of 5","1","reveal.png","5"
