subject,blockcode,trialcode,trialnum,latency,response,values.imageName,stimulusitem1,stimulusnumber1,stimulusitem2,stimulusnumber2,stimulusitem3,stimulusnumber3,stimulusitem4,stimulusnumber4,stimulusitem5,stimulusnumber5,stimulusitem6,stimulusnumber6,stimulusitem7,stimulusnumber7,stimulusitem8,stimulusnumber8,stimulusitem9,stimulusnumber9,stimulusitem10,stimulusnumber10,stimulusitem11,stimulusnumber11,stimulusitem12,stimulusnumber12,stimulusitem13,stimulusnumber13,stimulusitem14,stimulusnumber14,stimulusitem15,stimulusnumber15,subject_id
1001,practiceBlock,practice,1,1,0,Picture1.jpg,+,1,Picture2.jpg,2,mask1.jpg,1,mask5.jpg,5,mask1.jpg,1,mask5.jpg,5,mask1.jpg,1,0,0,0,0,0,0,0,0,0,0,0,0,0,0,0,0,1
1001,practiceBlock,centre_mouse,2,1435,reveal,Picture1.jpg,N_1.png,1,N_2.png,2,N_3.png,3,N_4.png,4,Y_1.png,1,Y_2.png,2,Y_3.png,3,Y_4.png,4,confidence.png,1,guessing.png,2,respond_yes.png,3,respond_no.png,4,Word 0 of 12,1,Image 1 of 3,1,reveal.png,5,1
1001,practiceBlock,practice_present_trial,3,1272,yes_4,Picture2.jpg,N_1.png,1,N_2.png,2,N_3.png,3,N_4.png,4,Y_1.png,1,Y_2.png,2,Y_3.png,3,Y_4.png,4,confidence.png,1,guessing.png,2,respond_yes.png,3,respond_no.png,4,Word 1 of 12,1,Image 1 of 3,1,yellow,2,1
1001,practiceBlock,centre_mouse,4,506,reveal,Picture2.jpg,N_1.png,1,N_2.png,2,N_3.png,3,N_4.png,4,Y_1.png,1,Y_2.png,2,Y_3.png,3,Y_4.png,4,confidence.png,1,guessing.png,2,respond_yes.png,3,respond_no.png,4,Word 1 of 12,1,Image 1 of 3,1,reveal.png,5,1
1001,practiceBlock,practice_present_trial,5,991,yes_4,Picture2.jpg,N_1.png,1,N_2.png,2,N_3.png,3,N_4.png,4,Y_1.png,1,Y_2.png,2,Y_3.png,3,Y_4.png,4,confidence.png,1,guessing.png,2,respond_yes.png,3,respond_no.png,4,Word 2 of 12,1,Image 1 of 3,1,face,1,1
1001,practiceBlock,centre_mouse,6,441,reveal,Picture2.jpg,N_1.png,1,N_2.png,2,N_3.png,3,N_4.png,4,Y_1.png,1,Y_2.png,2,Y_3.png,3,Y_4.png,4,confidence.png,1,guessing.png,2,respond_yes.png,3,respond_no.png,4,Word 2 of 12,1,Image 1 of 3,1,reveal.png,5,1
1001,practiceBlock,practice_present_trial,7,1498,yes_4,Picture2.jpg,N_1.png,1,N_2.png,2,N_3.png,3,N_4.png,4,Y_1.png,1,Y_2.png,2,Y_3.png,3,Y_4.png,4,confidence.png,1,guessing.png,2,respond_yes.png,3,respond_no.png,4,Word 3 of 12,1,Image 1 of 3,1,smile,4,1
1001,practiceBlock,centre_mouse,8,341,reveal,Picture2.jpg,N_1.png,1,N_2.png,2,N_3.png,3,N_4.png,4,Y_1.png,1,Y_2.png,2,Y_3.png,3,Y_4.png,4,confidence.png,1,guessing.png,2,respond_yes.png,3,respond_no.png,4,Word 3 of 12,1,Image 1 of 3,1,reveal.png,5,1
1001,practiceBlock,practice_present_trial,9,813,yes_4,Picture2.jpg,N_1.png,1,N_2.png,2,N_3.png,3,N_4.png,4,Y_1.png,1,Y_2.png,2,Y_3.png,3,Y_4.png,4,confidence.png,1,guessing.png,2,respond_yes.png,3,respond_no.png,4,Word 4 of 12,1,Image 1 of 3,1,emoji,6,1
1001,practiceBlock,centre_mouse,10,513,reveal,Picture2.jpg,N_1.png,1,N_2.png,2,N_3.png,3,N_4.png,4,Y_1.png,1,Y_2.png,2,Y_3.png,3,Y_4.png,4,confidence.png,1,guessing.png,2,respond_yes.png,3,respond_no.png,4,Word 4 of 12,1,Image 1 of 3,1,reveal.png,5,1
1001,practiceBlock,practice_absent_trial,11,942,no_4,Picture2.jpg,N_1.png,1,N_2.png,2,N_3.png,3,N_4.png,4,Y_1.png,1,Y_2.png,2,Y_3.png,3,Y_4.png,4,confidence.png,1,guessing.png,2,respond_yes.png,3,respond_no.png,4,Word 5 of 12,1,Image 1 of 3,1,grey-clothes,4,1
1001,practiceBlock,centre_mouse,12,419,reveal,Picture2.jpg,N_1.png,1,N_2.png,2,N_3.png,3,N_4.png,4,Y_1.png,1,Y_2.png,2,Y_3.png,3,Y_4.png,4,confidence.png,1,guessing.png,2,respond_yes.png,3,respond_no.png,4,Word 5 of 12,1,Image 1 of 3,1,reveal.png,5,1
1001,practiceBlock,practice_absent_trial,13,920,no_4,Picture2.jpg,N_1.png,1,N_2.png,2,N_3.png,3,N_4.png,4,Y_1.png,1,Y_2.png,2,Y_3.png,3,Y_4.png,4,confidence.png,1,guessing.png,2,respond_yes.png,3,respond_no.png,4,Word 6 of 12,1,Image 1 of 3,1,walk,1,1
1001,practiceBlock,centre_mouse,14,345,reveal,Picture2.jpg,N_1.png,1,N_2.png,2,N_3.png,3,N_4.png,4,Y_1.png,1,Y_2.png,2,Y_3.png,3,Y_4.png,4,confidence.png,1,guessing.png,2,respond_yes.png,3,respond_no.png,4,Word 6 of 12,1,Image 1 of 3,1,reveal.png,5,1
1001,practiceBlock,practice_present_trial,15,1020,yes_3,Picture2.jpg,N_1.png,1,N_2.png,2,N_3.png,3,N_4.png,4,Y_1.png,1,Y_2.png,2,Y_3.png,3,Y_4.png,4,confidence.png,1,guessing.png,2,respond_yes.png,3,respond_no.png,4,Word 7 of 12,1,Image 1 of 3,1,happy,5,1
1001,practiceBlock,centre_mouse,16,381,reveal,Picture2.jpg,N_1.png,1,N_2.png,2,N_3.png,3,N_4.png,4,Y_1.png,1,Y_2.png,2,Y_3.png,3,Y_4.png,4,confidence.png,1,guessing.png,2,respond_yes.png,3,respond_no.png,4,Word 7 of 12,1,Image 1 of 3,1,reveal.png,5,1
1001,practiceBlock,practice_present_trial,17,807,yes_4,Picture2.jpg,N_1.png,1,N_2.png,2,N_3.png,3,N_4.png,4,Y_1.png,1,Y_2.png,2,Y_3.png,3,Y_4.png,4,confidence.png,1,guessing.png,2,respond_yes.png,3,respond_no.png,4,Word 8 of 12,1,Image 1 of 3,1,eyes,3,1
1001,practiceBlock,centre_mouse,18,339,reveal,Picture2.jpg,N_1.png,1,N_2.png,2,N_3.png,3,N_4.png,4,Y_1.png,1,Y_2.png,2,Y_3.png,3,Y_4.png,4,confidence.png,1,guessing.png,2,respond_yes.png,3,respond_no.png,4,Word 8 of 12,1,Image 1 of 3,1,reveal.png,5,1
1001,practiceBlock,practice_absent_trial,19,799,no_4,Picture2.jpg,N_1.png,1,N_2.png,2,N_3.png,3,N_4.png,4,Y_1.png,1,Y_2.png,2,Y_3.png,3,Y_4.png,4,confidence.png,1,guessing.png,2,respond_yes.png,3,respond_no.png,4,Word 9 of 12,1,Image 1 of 3,1,anxious,5,1
1001,practiceBlock,centre_mouse,20,321,reveal,Picture2.jpg,N_1.png,1,N_2.png,2,N_3.png,3,N_4.png,4,Y_1.png,1,Y_2.png,2,Y_3.png,3,Y_4.png,4,confidence.png,1,guessing.png,2,respond_yes.png,3,respond_no.png,4,Word 9 of 12,1,Image 1 of 3,1,reveal.png,5,1
1001,practiceBlock,practice_absent_trial,21,2282,yes_2,Picture2.jpg,N_1.png,1,N_2.png,2,N_3.png,3,N_4.png,4,Y_1.png,1,Y_2.png,2,Y_3.png,3,Y_4.png,4,confidence.png,1,guessing.png,2,respond_yes.png,3,respond_no.png,4,Word 10 of 12,1,Image 1 of 3,1,man,6,1
1001,practiceBlock,centre_mouse,22,476,reveal,Picture2.jpg,N_1.png,1,N_2.png,2,N_3.png,3,N_4.png,4,Y_1.png,1,Y_2.png,2,Y_3.png,3,Y_4.png,4,confidence.png,1,guessing.png,2,respond_yes.png,3,respond_no.png,4,Word 10 of 12,1,Image 1 of 3,1,reveal.png,5,1
1001,practiceBlock,practice_absent_trial,23,3076,no_3,Picture2.jpg,N_1.png,1,N_2.png,2,N_3.png,3,N_4.png,4,Y_1.png,1,Y_2.png,2,Y_3.png,3,Y_4.png,4,confidence.png,1,guessing.png,2,respond_yes.png,3,respond_no.png,4,Word 11 of 12,1,Image 1 of 3,1,beauty,2,1
1001,practiceBlock,centre_mouse,24,418,reveal,Picture2.jpg,N_1.png,1,N_2.png,2,N_3.png,3,N_4.png,4,Y_1.png,1,Y_2.png,2,Y_3.png,3,Y_4.png,4,confidence.png,1,guessing.png,2,respond_yes.png,3,respond_no.png,4,Word 11 of 12,1,Image 1 of 3,1,reveal.png,5,1
1001,practiceBlock,practice_absent_trial,25,930,no_4,Picture2.jpg,N_1.png,1,N_2.png,2,N_3.png,3,N_4.png,4,Y_1.png,1,Y_2.png,2,Y_3.png,3,Y_4.png,4,confidence.png,1,guessing.png,2,respond_yes.png,3,respond_no.png,4,Word 12 of 12,1,Image 1 of 3,1,metal,3,1
1001,practiceBlock,centre_mouse,26,413,reveal,Picture2.jpg,N_1.png,1,N_2.png,2,N_3.png,3,N_4.png,4,Y_1.png,1,Y_2.png,2,Y_3.png,3,Y_4.png,4,confidence.png,1,guessing.png,2,respond_yes.png,3,respond_no.png,4,Word 12 of 12,1,Image 1 of 3,1,reveal.png,5,1
1001,practiceBlock,catch_present_trial,27,1511,yes_4,Picture2.jpg,N_1.png,1,N_2.png,2,N_3.png,3,N_4.png,4,Y_1.png,1,Y_2.png,2,Y_3.png,3,Y_4.png,4,confidence.png,1,guessing.png,2,respond_yes.png,3,respond_no.png,4,Word 12 of 12,1,Image 1 of 3,1,PRESS: Yes 4,4,1
1001,practiceBlock,centre_mouse,28,601,reveal,Picture2.jpg,N_1.png,1,N_2.png,2,N_3.png,3,N_4.png,4,Y_1.png,1,Y_2.png,2,Y_3.png,3,Y_4.png,4,confidence.png,1,guessing.png,2,respond_yes.png,3,respond_no.png,4,Word 12 of 12,1,Image 1 of 3,1,reveal.png,5,1
1001,practiceBlock,catch_absent_trial,29,1560,no_1,Picture2.jpg,N_1.png,1,N_2.png,2,N_3.png,3,N_4.png,4,Y_1.png,1,Y_2.png,2,Y_3.png,3,Y_4.png,4,confidence.png,1,guessing.png,2,respond_yes.png,3,respond_no.png,4,Word 12 of 12,1,Image 1 of 3,1,PRESS: No 1,1,1
1001,practiceBlock,centre_mouse,30,588,reveal,Picture2.jpg,N_1.png,1,N_2.png,2,N_3.png,3,N_4.png,4,Y_1.png,1,Y_2.png,2,Y_3.png,3,Y_4.png,4,confidence.png,1,guessing.png,2,respond_yes.png,3,respond_no.png,4,Word 12 of 12,1,Image 1 of 3,1,reveal.png,5,1
1001,practiceBlock,practice,1,1,0,Picture2.jpg,+,1,Picture1.jpg,1,mask4.jpg,4,mask2.jpg,2,mask5.jpg,5,mask2.jpg,2,mask3.jpg,3,0,0,0,0,0,0,0,0,0,0,0,0,0,0,0,0,1
1001,practiceBlock,centre_mouse,2,364,reveal,Picture2.jpg,N_1.png,1,N_2.png,2,N_3.png,3,N_4.png,4,Y_1.png,1,Y_2.png,2,Y_3.png,3,Y_4.png,4,confidence.png,1,guessing.png,2,respond_yes.png,3,respond_no.png,4,Word 0 of 12,1,Image 2 of 3,1,reveal.png,5,1
1001,practiceBlock,practice_absent_trial,3,2512,no_4,Picture1.jpg,N_1.png,1,N_2.png,2,N_3.png,3,N_4.png,4,Y_1.png,1,Y_2.png,2,Y_3.png,3,Y_4.png,4,confidence.png,1,guessing.png,2,respond_yes.png,3,respond_no.png,4,Word 1 of 12,1,Image 2 of 3,1,crow,2,1
1001,practiceBlock,centre_mouse,4,387,reveal,Picture1.jpg,N_1.png,1,N_2.png,2,N_3.png,3,N_4.png,4,Y_1.png,1,Y_2.png,2,Y_3.png,3,Y_4.png,4,confidence.png,1,guessing.png,2,respond_yes.png,3,respond_no.png,4,Word 1 of 12,1,Image 2 of 3,1,reveal.png,5,1
1001,practiceBlock,practice_present_trial,5,855,yes_4,Picture1.jpg,N_1.png,1,N_2.png,2,N_3.png,3,N_4.png,4,Y_1.png,1,Y_2.png,2,Y_3.png,3,Y_4.png,4,confidence.png,1,guessing.png,2,respond_yes.png,3,respond_no.png,4,Word 2 of 12,1,Image 2 of 3,1,red,3,1
1001,practiceBlock,centre_mouse,6,326,reveal,Picture1.jpg,N_1.png,1,N_2.png,2,N_3.png,3,N_4.png,4,Y_1.png,1,Y_2.png,2,Y_3.png,3,Y_4.png,4,confidence.png,1,guessing.png,2,respond_yes.png,3,respond_no.png,4,Word 2 of 12,1,Image 2 of 3,1,reveal.png,5,1
1001,practiceBlock,practice_present_trial,7,1466,no_3,Picture1.jpg,N_1.png,1,N_2.png,2,N_3.png,3,N_4.png,4,Y_1.png,1,Y_2.png,2,Y_3.png,3,Y_4.png,4,confidence.png,1,guessing.png,2,respond_yes.png,3,respond_no.png,4,Word 3 of 12,1,Image 2 of 3,1,outline,5,1
1001,practiceBlock,centre_mouse,8,489,reveal,Picture1.jpg,N_1.png,1,N_2.png,2,N_3.png,3,N_4.png,4,Y_1.png,1,Y_2.png,2,Y_3.png,3,Y_4.png,4,confidence.png,1,guessing.png,2,respond_yes.png,3,respond_no.png,4,Word 3 of 12,1,Image 2 of 3,1,reveal.png,5,1
1001,practiceBlock,practice_absent_trial,9,967,no_4,Picture1.jpg,N_1.png,1,N_2.png,2,N_3.png,3,N_4.png,4,Y_1.png,1,Y_2.png,2,Y_3.png,3,Y_4.png,4,confidence.png,1,guessing.png,2,respond_yes.png,3,respond_no.png,4,Word 4 of 12,1,Image 2 of 3,1,wall,3,1
1001,practiceBlock,centre_mouse,10,478,reveal,Picture1.jpg,N_1.png,1,N_2.png,2,N_3.png,3,N_4.png,4,Y_1.png,1,Y_2.png,2,Y_3.png,3,Y_4.png,4,confidence.png,1,guessing.png,2,respond_yes.png,3,respond_no.png,4,Word 4 of 12,1,Image 2 of 3,1,reveal.png,5,1
1001,practiceBlock,practice_present_trial,11,1289,yes_2,Picture1.jpg,N_1.png,1,N_2.png,2,N_3.png,3,N_4.png,4,Y_1.png,1,Y_2.png,2,Y_3.png,3,Y_4.png,4,confidence.png,1,guessing.png,2,respond_yes.png,3,respond_no.png,4,Word 5 of 12,1,Image 2 of 3,1,black,4,1
1001,practiceBlock,centre_mouse,12,665,reveal,Picture1.jpg,N_1.png,1,N_2.png,2,N_3.png,3,N_4.png,4,Y_1.png,1,Y_2.png,2,Y_3.png,3,Y_4.png,4,confidence.png,1,guessing.png,2,respond_yes.png,3,respond_no.png,4,Word 5 of 12,1,Image 2 of 3,1,reveal.png,5,1
1001,practiceBlock,practice_present_trial,13,871,yes_4,Picture1.jpg,N_1.png,1,N_2.png,2,N_3.png,3,N_4.png,4,Y_1.png,1,Y_2.png,2,Y_3.png,3,Y_4.png,4,confidence.png,1,guessing.png,2,respond_yes.png,3,respond_no.png,4,Word 6 of 12,1,Image 2 of 3,1,love,2,1
1001,practiceBlock,centre_mouse,14,369,reveal,Picture1.jpg,N_1.png,1,N_2.png,2,N_3.png,3,N_4.png,4,Y_1.png,1,Y_2.png,2,Y_3.png,3,Y_4.png,4,confidence.png,1,guessing.png,2,respond_yes.png,3,respond_no.png,4,Word 6 of 12,1,Image 2 of 3,1,reveal.png,5,1
1001,practiceBlock,practice_absent_trial,15,1358,no_4,Picture1.jpg,N_1.png,1,N_2.png,2,N_3.png,3,N_4.png,4,Y_1.png,1,Y_2.png,2,Y_3.png,3,Y_4.png,4,confidence.png,1,guessing.png,2,respond_yes.png,3,respond_no.png,4,Word 7 of 12,1,Image 2 of 3,1,dome,5,1
1001,practiceBlock,centre_mouse,16,351,reveal,Picture1.jpg,N_1.png,1,N_2.png,2,N_3.png,3,N_4.png,4,Y_1.png,1,Y_2.png,2,Y_3.png,3,Y_4.png,4,confidence.png,1,guessing.png,2,respond_yes.png,3,respond_no.png,4,Word 7 of 12,1,Image 2 of 3,1,reveal.png,5,1
1001,practiceBlock,practice_present_trial,17,795,yes_4,Picture1.jpg,N_1.png,1,N_2.png,2,N_3.png,3,N_4.png,4,Y_1.png,1,Y_2.png,2,Y_3.png,3,Y_4.png,4,confidence.png,1,guessing.png,2,respond_yes.png,3,respond_no.png,4,Word 8 of 12,1,Image 2 of 3,1,heart,1,1
1001,practiceBlock,centre_mouse,18,332,reveal,Picture1.jpg,N_1.png,1,N_2.png,2,N_3.png,3,N_4.png,4,Y_1.png,1,Y_2.png,2,Y_3.png,3,Y_4.png,4,confidence.png,1,guessing.png,2,respond_yes.png,3,respond_no.png,4,Word 8 of 12,1,Image 2 of 3,1,reveal.png,5,1
1001,practiceBlock,practice_present_trial,19,1739,yes_2,Picture1.jpg,N_1.png,1,N_2.png,2,N_3.png,3,N_4.png,4,Y_1.png,1,Y_2.png,2,Y_3.png,3,Y_4.png,4,confidence.png,1,guessing.png,2,respond_yes.png,3,respond_no.png,4,Word 9 of 12,1,Image 2 of 3,1,color,6,1
1001,practiceBlock,centre_mouse,20,449,reveal,Picture1.jpg,N_1.png,1,N_2.png,2,N_3.png,3,N_4.png,4,Y_1.png,1,Y_2.png,2,Y_3.png,3,Y_4.png,4,confidence.png,1,guessing.png,2,respond_yes.png,3,respond_no.png,4,Word 9 of 12,1,Image 2 of 3,1,reveal.png,5,1
1001,practiceBlock,practice_absent_trial,21,2411,no_4,Picture1.jpg,N_1.png,1,N_2.png,2,N_3.png,3,N_4.png,4,Y_1.png,1,Y_2.png,2,Y_3.png,3,Y_4.png,4,confidence.png,1,guessing.png,2,respond_yes.png,3,respond_no.png,4,Word 10 of 12,1,Image 2 of 3,1,day,4,1
1001,practiceBlock,centre_mouse,22,759,reveal,Picture1.jpg,N_1.png,1,N_2.png,2,N_3.png,3,N_4.png,4,Y_1.png,1,Y_2.png,2,Y_3.png,3,Y_4.png,4,confidence.png,1,guessing.png,2,respond_yes.png,3,respond_no.png,4,Word 10 of 12,1,Image 2 of 3,1,reveal.png,5,1
1001,practiceBlock,practice_absent_trial,23,2277,no_4,Picture1.jpg,N_1.png,1,N_2.png,2,N_3.png,3,N_4.png,4,Y_1.png,1,Y_2.png,2,Y_3.png,3,Y_4.png,4,confidence.png,1,guessing.png,2,respond_yes.png,3,respond_no.png,4,Word 11 of 12,1,Image 2 of 3,1,blanket,1,1
1001,practiceBlock,centre_mouse,24,374,reveal,Picture1.jpg,N_1.png,1,N_2.png,2,N_3.png,3,N_4.png,4,Y_1.png,1,Y_2.png,2,Y_3.png,3,Y_4.png,4,confidence.png,1,guessing.png,2,respond_yes.png,3,respond_no.png,4,Word 11 of 12,1,Image 2 of 3,1,reveal.png,5,1
1001,practiceBlock,practice_absent_trial,25,1634,no_3,Picture1.jpg,N_1.png,1,N_2.png,2,N_3.png,3,N_4.png,4,Y_1.png,1,Y_2.png,2,Y_3.png,3,Y_4.png,4,confidence.png,1,guessing.png,2,respond_yes.png,3,respond_no.png,4,Word 12 of 12,1,Image 2 of 3,1,line,6,1
1001,practiceBlock,centre_mouse,26,355,reveal,Picture1.jpg,N_1.png,1,N_2.png,2,N_3.png,3,N_4.png,4,Y_1.png,1,Y_2.png,2,Y_3.png,3,Y_4.png,4,confidence.png,1,guessing.png,2,respond_yes.png,3,respond_no.png,4,Word 12 of 12,1,Image 2 of 3,1,reveal.png,5,1
1001,practiceBlock,catch_absent_trial,27,1294,no_4,Picture1.jpg,N_1.png,1,N_2.png,2,N_3.png,3,N_4.png,4,Y_1.png,1,Y_2.png,2,Y_3.png,3,Y_4.png,4,confidence.png,1,guessing.png,2,respond_yes.png,3,respond_no.png,4,Word 12 of 12,1,Image 2 of 3,1,PRESS: No 4,4,1
1001,practiceBlock,centre_mouse,28,399,reveal,Picture1.jpg,N_1.png,1,N_2.png,2,N_3.png,3,N_4.png,4,Y_1.png,1,Y_2.png,2,Y_3.png,3,Y_4.png,4,confidence.png,1,guessing.png,2,respond_yes.png,3,respond_no.png,4,Word 12 of 12,1,Image 2 of 3,1,reveal.png,5,1
1001,practiceBlock,catch_present_trial,29,1074,yes_2,Picture1.jpg,N_1.png,1,N_2.png,2,N_3.png,3,N_4.png,4,Y_1.png,1,Y_2.png,2,Y_3.png,3,Y_4.png,4,confidence.png,1,guessing.png,2,respond_yes.png,3,respond_no.png,4,Word 12 of 12,1,Image 2 of 3,1,PRESS: Yes 2,2,1
1001,practiceBlock,centre_mouse,30,473,reveal,Picture1.jpg,N_1.png,1,N_2.png,2,N_3.png,3,N_4.png,4,Y_1.png,1,Y_2.png,2,Y_3.png,3,Y_4.png,4,confidence.png,1,guessing.png,2,respond_yes.png,3,respond_no.png,4,Word 12 of 12,1,Image 2 of 3,1,reveal.png,5,1
1001,practiceBlock,practice,1,1,0,Picture1.jpg,+,1,Picture3.jpg,3,mask2.jpg,2,mask3.jpg,3,mask2.jpg,2,mask4.jpg,4,mask2.jpg,2,0,0,0,0,0,0,0,0,0,0,0,0,0,0,0,0,1
1001,practiceBlock,centre_mouse,2,635,reveal,Picture1.jpg,N_1.png,1,N_2.png,2,N_3.png,3,N_4.png,4,Y_1.png,1,Y_2.png,2,Y_3.png,3,Y_4.png,4,confidence.png,1,guessing.png,2,respond_yes.png,3,respond_no.png,4,Word 0 of 12,1,Image 3 of 3,1,reveal.png,5,1
1001,practiceBlock,practice_absent_trial,3,1166,no_4,Picture3.jpg,N_1.png,1,N_2.png,2,N_3.png,3,N_4.png,4,Y_1.png,1,Y_2.png,2,Y_3.png,3,Y_4.png,4,confidence.png,1,guessing.png,2,respond_yes.png,3,respond_no.png,4,Word 1 of 12,1,Image 3 of 3,1,old,4,1
1001,practiceBlock,centre_mouse,4,331,reveal,Picture3.jpg,N_1.png,1,N_2.png,2,N_3.png,3,N_4.png,4,Y_1.png,1,Y_2.png,2,Y_3.png,3,Y_4.png,4,confidence.png,1,guessing.png,2,respond_yes.png,3,respond_no.png,4,Word 1 of 12,1,Image 3 of 3,1,reveal.png,5,1
1001,practiceBlock,practice_present_trial,5,645,yes_4,Picture3.jpg,N_1.png,1,N_2.png,2,N_3.png,3,N_4.png,4,Y_1.png,1,Y_2.png,2,Y_3.png,3,Y_4.png,4,confidence.png,1,guessing.png,2,respond_yes.png,3,respond_no.png,4,Word 2 of 12,1,Image 3 of 3,1,mountain,1,1
1001,practiceBlock,centre_mouse,6,333,reveal,Picture3.jpg,N_1.png,1,N_2.png,2,N_3.png,3,N_4.png,4,Y_1.png,1,Y_2.png,2,Y_3.png,3,Y_4.png,4,confidence.png,1,guessing.png,2,respond_yes.png,3,respond_no.png,4,Word 2 of 12,1,Image 3 of 3,1,reveal.png,5,1
1001,practiceBlock,practice_present_trial,7,1164,yes_4,Picture3.jpg,N_1.png,1,N_2.png,2,N_3.png,3,N_4.png,4,Y_1.png,1,Y_2.png,2,Y_3.png,3,Y_4.png,4,confidence.png,1,guessing.png,2,respond_yes.png,3,respond_no.png,4,Word 3 of 12,1,Image 3 of 3,1,blue,5,1
1001,practiceBlock,centre_mouse,8,318,reveal,Picture3.jpg,N_1.png,1,N_2.png,2,N_3.png,3,N_4.png,4,Y_1.png,1,Y_2.png,2,Y_3.png,3,Y_4.png,4,confidence.png,1,guessing.png,2,respond_yes.png,3,respond_no.png,4,Word 3 of 12,1,Image 3 of 3,1,reveal.png,5,1
1001,practiceBlock,practice_present_trial,9,919,yes_3,Picture3.jpg,N_1.png,1,N_2.png,2,N_3.png,3,N_4.png,4,Y_1.png,1,Y_2.png,2,Y_3.png,3,Y_4.png,4,confidence.png,1,guessing.png,2,respond_yes.png,3,respond_no.png,4,Word 4 of 12,1,Image 3 of 3,1,sky,6,1
1001,practiceBlock,centre_mouse,10,300,reveal,Picture3.jpg,N_1.png,1,N_2.png,2,N_3.png,3,N_4.png,4,Y_1.png,1,Y_2.png,2,Y_3.png,3,Y_4.png,4,confidence.png,1,guessing.png,2,respond_yes.png,3,respond_no.png,4,Word 4 of 12,1,Image 3 of 3,1,reveal.png,5,1
1001,practiceBlock,practice_absent_trial,11,895,no_4,Picture3.jpg,N_1.png,1,N_2.png,2,N_3.png,3,N_4.png,4,Y_1.png,1,Y_2.png,2,Y_3.png,3,Y_4.png,4,confidence.png,1,guessing.png,2,respond_yes.png,3,respond_no.png,4,Word 5 of 12,1,Image 3 of 3,1,blue-hat,6,1
1001,practiceBlock,centre_mouse,12,320,reveal,Picture3.jpg,N_1.png,1,N_2.png,2,N_3.png,3,N_4.png,4,Y_1.png,1,Y_2.png,2,Y_3.png,3,Y_4.png,4,confidence.png,1,guessing.png,2,respond_yes.png,3,respond_no.png,4,Word 5 of 12,1,Image 3 of 3,1,reveal.png,5,1
1001,practiceBlock,practice_present_trial,13,944,yes_3,Picture3.jpg,N_1.png,1,N_2.png,2,N_3.png,3,N_4.png,4,Y_1.png,1,Y_2.png,2,Y_3.png,3,Y_4.png,4,confidence.png,1,guessing.png,2,respond_yes.png,3,respond_no.png,4,Word 6 of 12,1,Image 3 of 3,1,landscape,4,1
1001,practiceBlock,centre_mouse,14,343,reveal,Picture3.jpg,N_1.png,1,N_2.png,2,N_3.png,3,N_4.png,4,Y_1.png,1,Y_2.png,2,Y_3.png,3,Y_4.png,4,confidence.png,1,guessing.png,2,respond_yes.png,3,respond_no.png,4,Word 6 of 12,1,Image 3 of 3,1,reveal.png,5,1
1001,practiceBlock,practice_absent_trial,15,2783,no_4,Picture3.jpg,N_1.png,1,N_2.png,2,N_3.png,3,N_4.png,4,Y_1.png,1,Y_2.png,2,Y_3.png,3,Y_4.png,4,confidence.png,1,guessing.png,2,respond_yes.png,3,respond_no.png,4,Word 7 of 12,1,Image 3 of 3,1,coat,3,1
1001,practiceBlock,centre_mouse,16,364,reveal,Picture3.jpg,N_1.png,1,N_2.png,2,N_3.png,3,N_4.png,4,Y_1.png,1,Y_2.png,2,Y_3.png,3,Y_4.png,4,confidence.png,1,guessing.png,2,respond_yes.png,3,respond_no.png,4,Word 7 of 12,1,Image 3 of 3,1,reveal.png,5,1
1001,practiceBlock,practice_absent_trial,17,1016,no_4,Picture3.jpg,N_1.png,1,N_2.png,2,N_3.png,3,N_4.png,4,Y_1.png,1,Y_2.png,2,Y_3.png,3,Y_4.png,4,confidence.png,1,guessing.png,2,respond_yes.png,3,respond_no.png,4,Word 8 of 12,1,Image 3 of 3,1,horse,2,1
1001,practiceBlock,centre_mouse,18,309,reveal,Picture3.jpg,N_1.png,1,N_2.png,2,N_3.png,3,N_4.png,4,Y_1.png,1,Y_2.png,2,Y_3.png,3,Y_4.png,4,confidence.png,1,guessing.png,2,respond_yes.png,3,respond_no.png,4,Word 8 of 12,1,Image 3 of 3,1,reveal.png,5,1
1001,practiceBlock,practice_absent_trial,19,1681,no_3,Picture3.jpg,N_1.png,1,N_2.png,2,N_3.png,3,N_4.png,4,Y_1.png,1,Y_2.png,2,Y_3.png,3,Y_4.png,4,confidence.png,1,guessing.png,2,respond_yes.png,3,respond_no.png,4,Word 9 of 12,1,Image 3 of 3,1,zoomed-in,1,1
1001,practiceBlock,centre_mouse,20,379,reveal,Picture3.jpg,N_1.png,1,N_2.png,2,N_3.png,3,N_4.png,4,Y_1.png,1,Y_2.png,2,Y_3.png,3,Y_4.png,4,confidence.png,1,guessing.png,2,respond_yes.png,3,respond_no.png,4,Word 9 of 12,1,Image 3 of 3,1,reveal.png,5,1
1001,practiceBlock,practice_present_trial,21,1054,yes_4,Picture3.jpg,N_1.png,1,N_2.png,2,N_3.png,3,N_4.png,4,Y_1.png,1,Y_2.png,2,Y_3.png,3,Y_4.png,4,confidence.png,1,guessing.png,2,respond_yes.png,3,respond_no.png,4,Word 10 of 12,1,Image 3 of 3,1,sun,2,1
1001,practiceBlock,centre_mouse,22,335,reveal,Picture3.jpg,N_1.png,1,N_2.png,2,N_3.png,3,N_4.png,4,Y_1.png,1,Y_2.png,2,Y_3.png,3,Y_4.png,4,confidence.png,1,guessing.png,2,respond_yes.png,3,respond_no.png,4,Word 10 of 12,1,Image 3 of 3,1,reveal.png,5,1
1001,practiceBlock,practice_absent_trial,23,1718,no_2,Picture3.jpg,N_1.png,1,N_2.png,2,N_3.png,3,N_4.png,4,Y_1.png,1,Y_2.png,2,Y_3.png,3,Y_4.png,4,confidence.png,1,guessing.png,2,respond_yes.png,3,respond_no.png,4,Word 11 of 12,1,Image 3 of 3,1,stand,5,1
1001,practiceBlock,centre_mouse,24,412,reveal,Picture3.jpg,N_1.png,1,N_2.png,2,N_3.png,3,N_4.png,4,Y_1.png,1,Y_2.png,2,Y_3.png,3,Y_4.png,4,confidence.png,1,guessing.png,2,respond_yes.png,3,respond_no.png,4,Word 11 of 12,1,Image 3 of 3,1,reveal.png,5,1
1001,practiceBlock,practice_present_trial,25,1189,yes_3,Picture3.jpg,N_1.png,1,N_2.png,2,N_3.png,3,N_4.png,4,Y_1.png,1,Y_2.png,2,Y_3.png,3,Y_4.png,4,confidence.png,1,guessing.png,2,respond_yes.png,3,respond_no.png,4,Word 12 of 12,1,Image 3 of 3,1,cloud,3,1
1001,practiceBlock,centre_mouse,26,483,reveal,Picture3.jpg,N_1.png,1,N_2.png,2,N_3.png,3,N_4.png,4,Y_1.png,1,Y_2.png,2,Y_3.png,3,Y_4.png,4,confidence.png,1,guessing.png,2,respond_yes.png,3,respond_no.png,4,Word 12 of 12,1,Image 3 of 3,1,reveal.png,5,1
1001,practiceBlock,catch_present_trial,27,1288,yes_1,Picture3.jpg,N_1.png,1,N_2.png,2,N_3.png,3,N_4.png,4,Y_1.png,1,Y_2.png,2,Y_3.png,3,Y_4.png,4,confidence.png,1,guessing.png,2,respond_yes.png,3,respond_no.png,4,Word 12 of 12,1,Image 3 of 3,1,PRESS: Yes 1,1,1
1001,practiceBlock,centre_mouse,28,493,reveal,Picture3.jpg,N_1.png,1,N_2.png,2,N_3.png,3,N_4.png,4,Y_1.png,1,Y_2.png,2,Y_3.png,3,Y_4.png,4,confidence.png,1,guessing.png,2,respond_yes.png,3,respond_no.png,4,Word 12 of 12,1,Image 3 of 3,1,reveal.png,5,1
1001,practiceBlock,catch_absent_trial,29,1962,no_2,Picture3.jpg,N_1.png,1,N_2.png,2,N_3.png,3,N_4.png,4,Y_1.png,1,Y_2.png,2,Y_3.png,3,Y_4.png,4,confidence.png,1,guessing.png,2,respond_yes.png,3,respond_no.png,4,Word 12 of 12,1,Image 3 of 3,1,PRESS: No 2,2,1
1001,practiceBlock,centre_mouse,30,536,reveal,Picture3.jpg,N_1.png,1,N_2.png,2,N_3.png,3,N_4.png,4,Y_1.png,1,Y_2.png,2,Y_3.png,3,Y_4.png,4,confidence.png,1,guessing.png,2,respond_yes.png,3,respond_no.png,4,Word 12 of 12,1,Image 3 of 3,1,reveal.png,5,1
1001,reset,reset,1,200,0,Picture3.jpg,0,0,0,0,0,0,0,0,0,0,0,0,0,0,0,0,0,0,0,0,0,0,0,0,0,0,0,0,0,0,1
1001,testBlock,test,1,1,0,im0000041.jpg,+,1,im0000069.jpg,5,mask5.jpg,5,mask1.jpg,1,mask3.jpg,3,mask3.jpg,3,mask5.jpg,5,0,0,0,0,0,0,0,0,0,0,0,0,0,0,0,0,1
1001,testBlock,centre_mouse,2,565,reveal,im0000041.jpg,N_1.png,1,N_2.png,2,N_3.png,3,N_4.png,4,Y_1.png,1,Y_2.png,2,Y_3.png,3,Y_4.png,4,confidence.png,1,guessing.png,2,respond_yes.png,3,respond_no.png,4,Word 0 of 20,1,Image 1 of 5,1,reveal.png,5,1
1001,testBlock,absent_trial,3,2626,no_4,im0000069.jpg,N_1.png,1,N_2.png,2,N_3.png,3,N_4.png,4,Y_1.png,1,Y_2.png,2,Y_3.png,3,Y_4.png,4,confidence.png,1,guessing.png,2,respond_yes.png,3,respond_no.png,4,Word 1 of 20,1,Image 1 of 5,1,history,13,1
1001,testBlock,centre_mouse,4,396,reveal,im0000069.jpg,N_1.png,1,N_2.png,2,N_3.png,3,N_4.png,4,Y_1.png,1,Y_2.png,2,Y_3.png,3,Y_4.png,4,confidence.png,1,guessing.png,2,respond_yes.png,3,respond_no.png,4,Word 1 of 20,1,Image 1 of 5,1,reveal.png,5,1
1001,testBlock,present_trial,5,1020,no_4,im0000069.jpg,N_1.png,1,N_2.png,2,N_3.png,3,N_4.png,4,Y_1.png,1,Y_2.png,2,Y_3.png,3,Y_4.png,4,confidence.png,1,guessing.png,2,respond_yes.png,3,respond_no.png,4,Word 2 of 20,1,Image 1 of 5,1,walk,7,1
1001,testBlock,centre_mouse,6,313,reveal,im0000069.jpg,N_1.png,1,N_2.png,2,N_3.png,3,N_4.png,4,Y_1.png,1,Y_2.png,2,Y_3.png,3,Y_4.png,4,confidence.png,1,guessing.png,2,respond_yes.png,3,respond_no.png,4,Word 2 of 20,1,Image 1 of 5,1,reveal.png,5,1
1001,testBlock,absent_trial,7,897,no_4,im0000069.jpg,N_1.png,1,N_2.png,2,N_3.png,3,N_4.png,4,Y_1.png,1,Y_2.png,2,Y_3.png,3,Y_4.png,4,confidence.png,1,guessing.png,2,respond_yes.png,3,respond_no.png,4,Word 3 of 20,1,Image 1 of 5,1,black-children,4,1
1001,testBlock,centre_mouse,8,312,reveal,im0000069.jpg,N_1.png,1,N_2.png,2,N_3.png,3,N_4.png,4,Y_1.png,1,Y_2.png,2,Y_3.png,3,Y_4.png,4,confidence.png,1,guessing.png,2,respond_yes.png,3,respond_no.png,4,Word 3 of 20,1,Image 1 of 5,1,reveal.png,5,1
1001,testBlock,present_trial,9,1290,yes_4,im0000069.jpg,N_1.png,1,N_2.png,2,N_3.png,3,N_4.png,4,Y_1.png,1,Y_2.png,2,Y_3.png,3,Y_4.png,4,confidence.png,1,guessing.png,2,respond_yes.png,3,respond_no.png,4,Word 4 of 20,1,Image 1 of 5,1,street,6,1
1001,testBlock,centre_mouse,10,326,reveal,im0000069.jpg,N_1.png,1,N_2.png,2,N_3.png,3,N_4.png,4,Y_1.png,1,Y_2.png,2,Y_3.png,3,Y_4.png,4,confidence.png,1,guessing.png,2,respond_yes.png,3,respond_no.png,4,Word 4 of 20,1,Image 1 of 5,1,reveal.png,5,1
1001,testBlock,present_trial,11,2220,yes_1,im0000069.jpg,N_1.png,1,N_2.png,2,N_3.png,3,N_4.png,4,Y_1.png,1,Y_2.png,2,Y_3.png,3,Y_4.png,4,confidence.png,1,guessing.png,2,respond_yes.png,3,respond_no.png,4,Word 5 of 20,1,Image 1 of 5,1,statue,2,1
1001,testBlock,centre_mouse,12,346,reveal,im0000069.jpg,N_1.png,1,N_2.png,2,N_3.png,3,N_4.png,4,Y_1.png,1,Y_2.png,2,Y_3.png,3,Y_4.png,4,confidence.png,1,guessing.png,2,respond_yes.png,3,respond_no.png,4,Word 5 of 20,1,Image 1 of 5,1,reveal.png,5,1
1001,testBlock,absent_trial,13,1155,no_3,im0000069.jpg,N_1.png,1,N_2.png,2,N_3.png,3,N_4.png,4,Y_1.png,1,Y_2.png,2,Y_3.png,3,Y_4.png,4,confidence.png,1,guessing.png,2,respond_yes.png,3,respond_no.png,4,Word 6 of 20,1,Image 1 of 5,1,concert,22,1
1001,testBlock,centre_mouse,14,337,reveal,im0000069.jpg,N_1.png,1,N_2.png,2,N_3.png,3,N_4.png,4,Y_1.png,1,Y_2.png,2,Y_3.png,3,Y_4.png,4,confidence.png,1,guessing.png,2,respond_yes.png,3,respond_no.png,4,Word 6 of 20,1,Image 1 of 5,1,reveal.png,5,1
1001,testBlock,absent_trial,15,830,yes_4,im0000069.jpg,N_1.png,1,N_2.png,2,N_3.png,3,N_4.png,4,Y_1.png,1,Y_2.png,2,Y_3.png,3,Y_4.png,4,confidence.png,1,guessing.png,2,respond_yes.png,3,respond_no.png,4,Word 7 of 20,1,Image 1 of 5,1,person,10,1
1001,testBlock,centre_mouse,16,319,reveal,im0000069.jpg,N_1.png,1,N_2.png,2,N_3.png,3,N_4.png,4,Y_1.png,1,Y_2.png,2,Y_3.png,3,Y_4.png,4,confidence.png,1,guessing.png,2,respond_yes.png,3,respond_no.png,4,Word 7 of 20,1,Image 1 of 5,1,reveal.png,5,1
1001,testBlock,present_trial,17,1335,yes_3,im0000069.jpg,N_1.png,1,N_2.png,2,N_3.png,3,N_4.png,4,Y_1.png,1,Y_2.png,2,Y_3.png,3,Y_4.png,4,confidence.png,1,guessing.png,2,respond_yes.png,3,respond_no.png,4,Word 8 of 20,1,Image 1 of 5,1,man,8,1
1001,testBlock,centre_mouse,18,481,reveal,im0000069.jpg,N_1.png,1,N_2.png,2,N_3.png,3,N_4.png,4,Y_1.png,1,Y_2.png,2,Y_3.png,3,Y_4.png,4,confidence.png,1,guessing.png,2,respond_yes.png,3,respond_no.png,4,Word 8 of 20,1,Image 1 of 5,1,reveal.png,5,1
1001,testBlock,catch_present_trial,19,1156,yes_3,im0000069.jpg,N_1.png,1,N_2.png,2,N_3.png,3,N_4.png,4,Y_1.png,1,Y_2.png,2,Y_3.png,3,Y_4.png,4,confidence.png,1,guessing.png,2,respond_yes.png,3,respond_no.png,4,Word 8 of 20,1,Image 1 of 5,1,PRESS: Yes 3,3,1
1001,testBlock,centre_mouse,20,360,reveal,im0000069.jpg,N_1.png,1,N_2.png,2,N_3.png,3,N_4.png,4,Y_1.png,1,Y_2.png,2,Y_3.png,3,Y_4.png,4,confidence.png,1,guessing.png,2,respond_yes.png,3,respond_no.png,4,Word 8 of 20,1,Image 1 of 5,1,reveal.png,5,1
1001,testBlock,present_trial,21,1760,yes_4,im0000069.jpg,N_1.png,1,N_2.png,2,N_3.png,3,N_4.png,4,Y_1.png,1,Y_2.png,2,Y_3.png,3,Y_4.png,4,confidence.png,1,guessing.png,2,respond_yes.png,3,respond_no.png,4,Word 9 of 20,1,Image 1 of 5,1,love,1,1
1001,testBlock,centre_mouse,22,521,reveal,im0000069.jpg,N_1.png,1,N_2.png,2,N_3.png,3,N_4.png,4,Y_1.png,1,Y_2.png,2,Y_3.png,3,Y_4.png,4,confidence.png,1,guessing.png,2,respond_yes.png,3,respond_no.png,4,Word 9 of 20,1,Image 1 of 5,1,reveal.png,5,1
1001,testBlock,present_trial,23,1530,yes_4,im0000069.jpg,N_1.png,1,N_2.png,2,N_3.png,3,N_4.png,4,Y_1.png,1,Y_2.png,2,Y_3.png,3,Y_4.png,4,confidence.png,1,guessing.png,2,respond_yes.png,3,respond_no.png,4,Word 10 of 20,1,Image 1 of 5,1,art,9,1
1001,testBlock,centre_mouse,24,322,reveal,im0000069.jpg,N_1.png,1,N_2.png,2,N_3.png,3,N_4.png,4,Y_1.png,1,Y_2.png,2,Y_3.png,3,Y_4.png,4,confidence.png,1,guessing.png,2,respond_yes.png,3,respond_no.png,4,Word 10 of 20,1,Image 1 of 5,1,reveal.png,5,1
1001,testBlock,absent_trial,25,3410,no_1,im0000069.jpg,N_1.png,1,N_2.png,2,N_3.png,3,N_4.png,4,Y_1.png,1,Y_2.png,2,Y_3.png,3,Y_4.png,4,confidence.png,1,guessing.png,2,respond_yes.png,3,respond_no.png,4,Word 11 of 20,1,Image 1 of 5,1,grey-and-white,8,1
1001,testBlock,centre_mouse,26,554,reveal,im0000069.jpg,N_1.png,1,N_2.png,2,N_3.png,3,N_4.png,4,Y_1.png,1,Y_2.png,2,Y_3.png,3,Y_4.png,4,confidence.png,1,guessing.png,2,respond_yes.png,3,respond_no.png,4,Word 11 of 20,1,Image 1 of 5,1,reveal.png,5,1
1001,testBlock,absent_trial,27,1101,no_3,im0000069.jpg,N_1.png,1,N_2.png,2,N_3.png,3,N_4.png,4,Y_1.png,1,Y_2.png,2,Y_3.png,3,Y_4.png,4,confidence.png,1,guessing.png,2,respond_yes.png,3,respond_no.png,4,Word 12 of 20,1,Image 1 of 5,1,van,23,1
1001,testBlock,centre_mouse,28,311,reveal,im0000069.jpg,N_1.png,1,N_2.png,2,N_3.png,3,N_4.png,4,Y_1.png,1,Y_2.png,2,Y_3.png,3,Y_4.png,4,confidence.png,1,guessing.png,2,respond_yes.png,3,respond_no.png,4,Word 12 of 20,1,Image 1 of 5,1,reveal.png,5,1
1001,testBlock,absent_trial,29,1952,no_4,im0000069.jpg,N_1.png,1,N_2.png,2,N_3.png,3,N_4.png,4,Y_1.png,1,Y_2.png,2,Y_3.png,3,Y_4.png,4,confidence.png,1,guessing.png,2,respond_yes.png,3,respond_no.png,4,Word 13 of 20,1,Image 1 of 5,1,cat,35,1
1001,testBlock,centre_mouse,30,333,reveal,im0000069.jpg,N_1.png,1,N_2.png,2,N_3.png,3,N_4.png,4,Y_1.png,1,Y_2.png,2,Y_3.png,3,Y_4.png,4,confidence.png,1,guessing.png,2,respond_yes.png,3,respond_no.png,4,Word 13 of 20,1,Image 1 of 5,1,reveal.png,5,1
1001,testBlock,present_trial,31,1007,yes_4,im0000069.jpg,N_1.png,1,N_2.png,2,N_3.png,3,N_4.png,4,Y_1.png,1,Y_2.png,2,Y_3.png,3,Y_4.png,4,confidence.png,1,guessing.png,2,respond_yes.png,3,respond_no.png,4,Word 14 of 20,1,Image 1 of 5,1,couple,4,1
1001,testBlock,centre_mouse,32,339,reveal,im0000069.jpg,N_1.png,1,N_2.png,2,N_3.png,3,N_4.png,4,Y_1.png,1,Y_2.png,2,Y_3.png,3,Y_4.png,4,confidence.png,1,guessing.png,2,respond_yes.png,3,respond_no.png,4,Word 14 of 20,1,Image 1 of 5,1,reveal.png,5,1
1001,testBlock,present_trial,33,2139,no_1,im0000069.jpg,N_1.png,1,N_2.png,2,N_3.png,3,N_4.png,4,Y_1.png,1,Y_2.png,2,Y_3.png,3,Y_4.png,4,confidence.png,1,guessing.png,2,respond_yes.png,3,respond_no.png,4,Word 15 of 20,1,Image 1 of 5,1,chicago,10,1
1001,testBlock,centre_mouse,34,403,reveal,im0000069.jpg,N_1.png,1,N_2.png,2,N_3.png,3,N_4.png,4,Y_1.png,1,Y_2.png,2,Y_3.png,3,Y_4.png,4,confidence.png,1,guessing.png,2,respond_yes.png,3,respond_no.png,4,Word 15 of 20,1,Image 1 of 5,1,reveal.png,5,1
1001,testBlock,absent_trial,35,1483,no_4,im0000069.jpg,N_1.png,1,N_2.png,2,N_3.png,3,N_4.png,4,Y_1.png,1,Y_2.png,2,Y_3.png,3,Y_4.png,4,confidence.png,1,guessing.png,2,respond_yes.png,3,respond_no.png,4,Word 16 of 20,1,Image 1 of 5,1,animal,3,1
1001,testBlock,centre_mouse,36,299,reveal,im0000069.jpg,N_1.png,1,N_2.png,2,N_3.png,3,N_4.png,4,Y_1.png,1,Y_2.png,2,Y_3.png,3,Y_4.png,4,confidence.png,1,guessing.png,2,respond_yes.png,3,respond_no.png,4,Word 16 of 20,1,Image 1 of 5,1,reveal.png,5,1
1001,testBlock,catch_absent_trial,37,1141,no_3,im0000069.jpg,N_1.png,1,N_2.png,2,N_3.png,3,N_4.png,4,Y_1.png,1,Y_2.png,2,Y_3.png,3,Y_4.png,4,confidence.png,1,guessing.png,2,respond_yes.png,3,respond_no.png,4,Word 16 of 20,1,Image 1 of 5,1,PRESS: No 3,3,1
1001,testBlock,centre_mouse,38,339,reveal,im0000069.jpg,N_1.png,1,N_2.png,2,N_3.png,3,N_4.png,4,Y_1.png,1,Y_2.png,2,Y_3.png,3,Y_4.png,4,confidence.png,1,guessing.png,2,respond_yes.png,3,respond_no.png,4,Word 16 of 20,1,Image 1 of 5,1,reveal.png,5,1
1001,testBlock,present_trial,39,1531,yes_4,im0000069.jpg,N_1.png,1,N_2.png,2,N_3.png,3,N_4.png,4,Y_1.png,1,Y_2.png,2,Y_3.png,3,Y_4.png,4,confidence.png,1,guessing.png,2,respond_yes.png,3,respond_no.png,4,Word 17 of 20,1,Image 1 of 5,1,people,3,1
1001,testBlock,centre_mouse,40,367,reveal,im0000069.jpg,N_1.png,1,N_2.png,2,N_3.png,3,N_4.png,4,Y_1.png,1,Y_2.png,2,Y_3.png,3,Y_4.png,4,confidence.png,1,guessing.png,2,respond_yes.png,3,respond_no.png,4,Word 17 of 20,1,Image 1 of 5,1,reveal.png,5,1
1001,testBlock,absent_trial,41,1065,yes_4,im0000069.jpg,N_1.png,1,N_2.png,2,N_3.png,3,N_4.png,4,Y_1.png,1,Y_2.png,2,Y_3.png,3,Y_4.png,4,confidence.png,1,guessing.png,2,respond_yes.png,3,respond_no.png,4,Word 18 of 20,1,Image 1 of 5,1,day-time,34,1
1001,testBlock,centre_mouse,42,319,reveal,im0000069.jpg,N_1.png,1,N_2.png,2,N_3.png,3,N_4.png,4,Y_1.png,1,Y_2.png,2,Y_3.png,3,Y_4.png,4,confidence.png,1,guessing.png,2,respond_yes.png,3,respond_no.png,4,Word 18 of 20,1,Image 1 of 5,1,reveal.png,5,1
1001,testBlock,present_trial,43,1595,yes_4,im0000069.jpg,N_1.png,1,N_2.png,2,N_3.png,3,N_4.png,4,Y_1.png,1,Y_2.png,2,Y_3.png,3,Y_4.png,4,confidence.png,1,guessing.png,2,respond_yes.png,3,respond_no.png,4,Word 19 of 20,1,Image 1 of 5,1,city,5,1
1001,testBlock,centre_mouse,44,321,reveal,im0000069.jpg,N_1.png,1,N_2.png,2,N_3.png,3,N_4.png,4,Y_1.png,1,Y_2.png,2,Y_3.png,3,Y_4.png,4,confidence.png,1,guessing.png,2,respond_yes.png,3,respond_no.png,4,Word 19 of 20,1,Image 1 of 5,1,reveal.png,5,1
1001,testBlock,absent_trial,45,4330,no_3,im0000069.jpg,N_1.png,1,N_2.png,2,N_3.png,3,N_4.png,4,Y_1.png,1,Y_2.png,2,Y_3.png,3,Y_4.png,4,confidence.png,1,guessing.png,2,respond_yes.png,3,respond_no.png,4,Word 20 of 20,1,Image 1 of 5,1,house,38,1
1001,testBlock,centre_mouse,46,390,reveal,im0000069.jpg,N_1.png,1,N_2.png,2,N_3.png,3,N_4.png,4,Y_1.png,1,Y_2.png,2,Y_3.png,3,Y_4.png,4,confidence.png,1,guessing.png,2,respond_yes.png,3,respond_no.png,4,Word 20 of 20,1,Image 1 of 5,1,reveal.png,5,1
1001,testBlock,test,1,1,0,im0000069.jpg,+,1,im0000050.jpg,2,mask3.jpg,3,mask4.jpg,4,mask4.jpg,4,mask1.jpg,1,mask4.jpg,4,0,0,0,0,0,0,0,0,0,0,0,0,0,0,0,0,1
1001,testBlock,centre_mouse,2,642,reveal,im0000069.jpg,N_1.png,1,N_2.png,2,N_3.png,3,N_4.png,4,Y_1.png,1,Y_2.png,2,Y_3.png,3,Y_4.png,4,confidence.png,1,guessing.png,2,respond_yes.png,3,respond_no.png,4,Word 0 of 20,1,Image 2 of 5,1,reveal.png,5,1
1001,testBlock,present_trial,3,893,yes_4,im0000050.jpg,N_1.png,1,N_2.png,2,N_3.png,3,N_4.png,4,Y_1.png,1,Y_2.png,2,Y_3.png,3,Y_4.png,4,confidence.png,1,guessing.png,2,respond_yes.png,3,respond_no.png,4,Word 1 of 20,1,Image 2 of 5,1,apple,6,1
1001,testBlock,centre_mouse,4,352,reveal,im0000050.jpg,N_1.png,1,N_2.png,2,N_3.png,3,N_4.png,4,Y_1.png,1,Y_2.png,2,Y_3.png,3,Y_4.png,4,confidence.png,1,guessing.png,2,respond_yes.png,3,respond_no.png,4,Word 1 of 20,1,Image 2 of 5,1,reveal.png,5,1
1001,testBlock,present_trial,5,932,yes_4,im0000050.jpg,N_1.png,1,N_2.png,2,N_3.png,3,N_4.png,4,Y_1.png,1,Y_2.png,2,Y_3.png,3,Y_4.png,4,confidence.png,1,guessing.png,2,respond_yes.png,3,respond_no.png,4,Word 2 of 20,1,Image 2 of 5,1,purchase,9,1
1001,testBlock,centre_mouse,6,307,reveal,im0000050.jpg,N_1.png,1,N_2.png,2,N_3.png,3,N_4.png,4,Y_1.png,1,Y_2.png,2,Y_3.png,3,Y_4.png,4,confidence.png,1,guessing.png,2,respond_yes.png,3,respond_no.png,4,Word 2 of 20,1,Image 2 of 5,1,reveal.png,5,1
1001,testBlock,present_trial,7,800,yes_4,im0000050.jpg,N_1.png,1,N_2.png,2,N_3.png,3,N_4.png,4,Y_1.png,1,Y_2.png,2,Y_3.png,3,Y_4.png,4,confidence.png,1,guessing.png,2,respond_yes.png,3,respond_no.png,4,Word 3 of 20,1,Image 2 of 5,1,man,1,1
1001,testBlock,centre_mouse,8,287,reveal,im0000050.jpg,N_1.png,1,N_2.png,2,N_3.png,3,N_4.png,4,Y_1.png,1,Y_2.png,2,Y_3.png,3,Y_4.png,4,confidence.png,1,guessing.png,2,respond_yes.png,3,respond_no.png,4,Word 3 of 20,1,Image 2 of 5,1,reveal.png,5,1
1001,testBlock,absent_trial,9,1315,yes_4,im0000050.jpg,N_1.png,1,N_2.png,2,N_3.png,3,N_4.png,4,Y_1.png,1,Y_2.png,2,Y_3.png,3,Y_4.png,4,confidence.png,1,guessing.png,2,respond_yes.png,3,respond_no.png,4,Word 4 of 20,1,Image 2 of 5,1,white,23,1
1001,testBlock,centre_mouse,10,274,reveal,im0000050.jpg,N_1.png,1,N_2.png,2,N_3.png,3,N_4.png,4,Y_1.png,1,Y_2.png,2,Y_3.png,3,Y_4.png,4,confidence.png,1,guessing.png,2,respond_yes.png,3,respond_no.png,4,Word 4 of 20,1,Image 2 of 5,1,reveal.png,5,1
1001,testBlock,absent_trial,11,982,no_4,im0000050.jpg,N_1.png,1,N_2.png,2,N_3.png,3,N_4.png,4,Y_1.png,1,Y_2.png,2,Y_3.png,3,Y_4.png,4,confidence.png,1,guessing.png,2,respond_yes.png,3,respond_no.png,4,Word 5 of 20,1,Image 2 of 5,1,historic,22,1
1001,testBlock,centre_mouse,12,510,reveal,im0000050.jpg,N_1.png,1,N_2.png,2,N_3.png,3,N_4.png,4,Y_1.png,1,Y_2.png,2,Y_3.png,3,Y_4.png,4,confidence.png,1,guessing.png,2,respond_yes.png,3,respond_no.png,4,Word 5 of 20,1,Image 2 of 5,1,reveal.png,5,1
1001,testBlock,absent_trial,13,3436,no_3,im0000050.jpg,N_1.png,1,N_2.png,2,N_3.png,3,N_4.png,4,Y_1.png,1,Y_2.png,2,Y_3.png,3,Y_4.png,4,confidence.png,1,guessing.png,2,respond_yes.png,3,respond_no.png,4,Word 6 of 20,1,Image 2 of 5,1,walk,1,1
1001,testBlock,centre_mouse,14,300,reveal,im0000050.jpg,N_1.png,1,N_2.png,2,N_3.png,3,N_4.png,4,Y_1.png,1,Y_2.png,2,Y_3.png,3,Y_4.png,4,confidence.png,1,guessing.png,2,respond_yes.png,3,respond_no.png,4,Word 6 of 20,1,Image 2 of 5,1,reveal.png,5,1
1001,testBlock,present_trial,15,1671,yes_4,im0000050.jpg,N_1.png,1,N_2.png,2,N_3.png,3,N_4.png,4,Y_1.png,1,Y_2.png,2,Y_3.png,3,Y_4.png,4,confidence.png,1,guessing.png,2,respond_yes.png,3,respond_no.png,4,Word 7 of 20,1,Image 2 of 5,1,orange,7,1
1001,testBlock,centre_mouse,16,325,reveal,im0000050.jpg,N_1.png,1,N_2.png,2,N_3.png,3,N_4.png,4,Y_1.png,1,Y_2.png,2,Y_3.png,3,Y_4.png,4,confidence.png,1,guessing.png,2,respond_yes.png,3,respond_no.png,4,Word 7 of 20,1,Image 2 of 5,1,reveal.png,5,1
1001,testBlock,absent_trial,17,1881,yes_4,im0000050.jpg,N_1.png,1,N_2.png,2,N_3.png,3,N_4.png,4,Y_1.png,1,Y_2.png,2,Y_3.png,3,Y_4.png,4,confidence.png,1,guessing.png,2,respond_yes.png,3,respond_no.png,4,Word 8 of 20,1,Image 2 of 5,1,look,9,1
1001,testBlock,centre_mouse,18,296,reveal,im0000050.jpg,N_1.png,1,N_2.png,2,N_3.png,3,N_4.png,4,Y_1.png,1,Y_2.png,2,Y_3.png,3,Y_4.png,4,confidence.png,1,guessing.png,2,respond_yes.png,3,respond_no.png,4,Word 8 of 20,1,Image 2 of 5,1,reveal.png,5,1
1001,testBlock,catch_absent_trial,19,1065,no_3,im0000050.jpg,N_1.png,1,N_2.png,2,N_3.png,3,N_4.png,4,Y_1.png,1,Y_2.png,2,Y_3.png,3,Y_4.png,4,confidence.png,1,guessing.png,2,respond_yes.png,3,respond_no.png,4,Word 8 of 20,1,Image 2 of 5,1,PRESS: No 3,3,1
1001,testBlock,centre_mouse,20,600,reveal,im0000050.jpg,N_1.png,1,N_2.png,2,N_3.png,3,N_4.png,4,Y_1.png,1,Y_2.png,2,Y_3.png,3,Y_4.png,4,confidence.png,1,guessing.png,2,respond_yes.png,3,respond_no.png,4,Word 8 of 20,1,Image 2 of 5,1,reveal.png,5,1
1001,testBlock,absent_trial,21,6678,no_4,im0000050.jpg,N_1.png,1,N_2.png,2,N_3.png,3,N_4.png,4,Y_1.png,1,Y_2.png,2,Y_3.png,3,Y_4.png,4,confidence.png,1,guessing.png,2,respond_yes.png,3,respond_no.png,4,Word 9 of 20,1,Image 2 of 5,1,insect,40,1
1001,testBlock,centre_mouse,22,734,reveal,im0000050.jpg,N_1.png,1,N_2.png,2,N_3.png,3,N_4.png,4,Y_1.png,1,Y_2.png,2,Y_3.png,3,Y_4.png,4,confidence.png,1,guessing.png,2,respond_yes.png,3,respond_no.png,4,Word 9 of 20,1,Image 2 of 5,1,reveal.png,5,1
1001,testBlock,present_trial,23,1098,yes_4,im0000050.jpg,N_1.png,1,N_2.png,2,N_3.png,3,N_4.png,4,Y_1.png,1,Y_2.png,2,Y_3.png,3,Y_4.png,4,confidence.png,1,guessing.png,2,respond_yes.png,3,respond_no.png,4,Word 10 of 20,1,Image 2 of 5,1,fruit,2,1
1001,testBlock,centre_mouse,24,713,reveal,im0000050.jpg,N_1.png,1,N_2.png,2,N_3.png,3,N_4.png,4,Y_1.png,1,Y_2.png,2,Y_3.png,3,Y_4.png,4,confidence.png,1,guessing.png,2,respond_yes.png,3,respond_no.png,4,Word 10 of 20,1,Image 2 of 5,1,reveal.png,5,1
1001,testBlock,present_trial,25,2893,yes_4,im0000050.jpg,N_1.png,1,N_2.png,2,N_3.png,3,N_4.png,4,Y_1.png,1,Y_2.png,2,Y_3.png,3,Y_4.png,4,confidence.png,1,guessing.png,2,respond_yes.png,3,respond_no.png,4,Word 11 of 20,1,Image 2 of 5,1,people,4,1
1001,testBlock,centre_mouse,26,589,reveal,im0000050.jpg,N_1.png,1,N_2.png,2,N_3.png,3,N_4.png,4,Y_1.png,1,Y_2.png,2,Y_3.png,3,Y_4.png,4,confidence.png,1,guessing.png,2,respond_yes.png,3,respond_no.png,4,Word 11 of 20,1,Image 2 of 5,1,reveal.png,5,1
1001,testBlock,absent_trial,27,1046,no_4,im0000050.jpg,N_1.png,1,N_2.png,2,N_3.png,3,N_4.png,4,Y_1.png,1,Y_2.png,2,Y_3.png,3,Y_4.png,4,confidence.png,1,guessing.png,2,respond_yes.png,3,respond_no.png,4,Word 12 of 20,1,Image 2 of 5,1,construction,16,1
1001,testBlock,centre_mouse,28,357,reveal,im0000050.jpg,N_1.png,1,N_2.png,2,N_3.png,3,N_4.png,4,Y_1.png,1,Y_2.png,2,Y_3.png,3,Y_4.png,4,confidence.png,1,guessing.png,2,respond_yes.png,3,respond_no.png,4,Word 12 of 20,1,Image 2 of 5,1,reveal.png,5,1
1001,testBlock,present_trial,29,1262,yes_3,im0000050.jpg,N_1.png,1,N_2.png,2,N_3.png,3,N_4.png,4,Y_1.png,1,Y_2.png,2,Y_3.png,3,Y_4.png,4,confidence.png,1,guessing.png,2,respond_yes.png,3,respond_no.png,4,Word 13 of 20,1,Image 2 of 5,1,store,8,1
1001,testBlock,centre_mouse,30,309,reveal,im0000050.jpg,N_1.png,1,N_2.png,2,N_3.png,3,N_4.png,4,Y_1.png,1,Y_2.png,2,Y_3.png,3,Y_4.png,4,confidence.png,1,guessing.png,2,respond_yes.png,3,respond_no.png,4,Word 13 of 20,1,Image 2 of 5,1,reveal.png,5,1
1001,testBlock,present_trial,31,803,yes_4,im0000050.jpg,N_1.png,1,N_2.png,2,N_3.png,3,N_4.png,4,Y_1.png,1,Y_2.png,2,Y_3.png,3,Y_4.png,4,confidence.png,1,guessing.png,2,respond_yes.png,3,respond_no.png,4,Word 14 of 20,1,Image 2 of 5,1,shop,3,1
1001,testBlock,centre_mouse,32,312,reveal,im0000050.jpg,N_1.png,1,N_2.png,2,N_3.png,3,N_4.png,4,Y_1.png,1,Y_2.png,2,Y_3.png,3,Y_4.png,4,confidence.png,1,guessing.png,2,respond_yes.png,3,respond_no.png,4,Word 14 of 20,1,Image 2 of 5,1,reveal.png,5,1
1001,testBlock,absent_trial,33,1461,no_4,im0000050.jpg,N_1.png,1,N_2.png,2,N_3.png,3,N_4.png,4,Y_1.png,1,Y_2.png,2,Y_3.png,3,Y_4.png,4,confidence.png,1,guessing.png,2,respond_yes.png,3,respond_no.png,4,Word 15 of 20,1,Image 2 of 5,1,gate,11,1
1001,testBlock,centre_mouse,34,340,reveal,im0000050.jpg,N_1.png,1,N_2.png,2,N_3.png,3,N_4.png,4,Y_1.png,1,Y_2.png,2,Y_3.png,3,Y_4.png,4,confidence.png,1,guessing.png,2,respond_yes.png,3,respond_no.png,4,Word 15 of 20,1,Image 2 of 5,1,reveal.png,5,1
1001,testBlock,absent_trial,35,2590,no_2,im0000050.jpg,N_1.png,1,N_2.png,2,N_3.png,3,N_4.png,4,Y_1.png,1,Y_2.png,2,Y_3.png,3,Y_4.png,4,confidence.png,1,guessing.png,2,respond_yes.png,3,respond_no.png,4,Word 16 of 20,1,Image 2 of 5,1,woman,31,1
1001,testBlock,centre_mouse,36,359,reveal,im0000050.jpg,N_1.png,1,N_2.png,2,N_3.png,3,N_4.png,4,Y_1.png,1,Y_2.png,2,Y_3.png,3,Y_4.png,4,confidence.png,1,guessing.png,2,respond_yes.png,3,respond_no.png,4,Word 16 of 20,1,Image 2 of 5,1,reveal.png,5,1
1001,testBlock,catch_absent_trial,37,1236,no_1,im0000050.jpg,N_1.png,1,N_2.png,2,N_3.png,3,N_4.png,4,Y_1.png,1,Y_2.png,2,Y_3.png,3,Y_4.png,4,confidence.png,1,guessing.png,2,respond_yes.png,3,respond_no.png,4,Word 16 of 20,1,Image 2 of 5,1,PRESS: No 1,1,1
1001,testBlock,centre_mouse,38,447,reveal,im0000050.jpg,N_1.png,1,N_2.png,2,N_3.png,3,N_4.png,4,Y_1.png,1,Y_2.png,2,Y_3.png,3,Y_4.png,4,confidence.png,1,guessing.png,2,respond_yes.png,3,respond_no.png,4,Word 16 of 20,1,Image 2 of 5,1,reveal.png,5,1
1001,testBlock,absent_trial,39,1342,no_4,im0000050.jpg,N_1.png,1,N_2.png,2,N_3.png,3,N_4.png,4,Y_1.png,1,Y_2.png,2,Y_3.png,3,Y_4.png,4,confidence.png,1,guessing.png,2,respond_yes.png,3,respond_no.png,4,Word 17 of 20,1,Image 2 of 5,1,sky,30,1
1001,testBlock,centre_mouse,40,364,reveal,im0000050.jpg,N_1.png,1,N_2.png,2,N_3.png,3,N_4.png,4,Y_1.png,1,Y_2.png,2,Y_3.png,3,Y_4.png,4,confidence.png,1,guessing.png,2,respond_yes.png,3,respond_no.png,4,Word 17 of 20,1,Image 2 of 5,1,reveal.png,5,1
1001,testBlock,absent_trial,41,1696,no_3,im0000050.jpg,N_1.png,1,N_2.png,2,N_3.png,3,N_4.png,4,Y_1.png,1,Y_2.png,2,Y_3.png,3,Y_4.png,4,confidence.png,1,guessing.png,2,respond_yes.png,3,respond_no.png,4,Word 18 of 20,1,Image 2 of 5,1,amaze,20,1
1001,testBlock,centre_mouse,42,298,reveal,im0000050.jpg,N_1.png,1,N_2.png,2,N_3.png,3,N_4.png,4,Y_1.png,1,Y_2.png,2,Y_3.png,3,Y_4.png,4,confidence.png,1,guessing.png,2,respond_yes.png,3,respond_no.png,4,Word 18 of 20,1,Image 2 of 5,1,reveal.png,5,1
1001,testBlock,present_trial,43,1513,yes_4,im0000050.jpg,N_1.png,1,N_2.png,2,N_3.png,3,N_4.png,4,Y_1.png,1,Y_2.png,2,Y_3.png,3,Y_4.png,4,confidence.png,1,guessing.png,2,respond_yes.png,3,respond_no.png,4,Word 19 of 20,1,Image 2 of 5,1,banana,10,1
1001,testBlock,centre_mouse,44,378,reveal,im0000050.jpg,N_1.png,1,N_2.png,2,N_3.png,3,N_4.png,4,Y_1.png,1,Y_2.png,2,Y_3.png,3,Y_4.png,4,confidence.png,1,guessing.png,2,respond_yes.png,3,respond_no.png,4,Word 19 of 20,1,Image 2 of 5,1,reveal.png,5,1
1001,testBlock,present_trial,45,917,yes_4,im0000050.jpg,N_1.png,1,N_2.png,2,N_3.png,3,N_4.png,4,Y_1.png,1,Y_2.png,2,Y_3.png,3,Y_4.png,4,confidence.png,1,guessing.png,2,respond_yes.png,3,respond_no.png,4,Word 20 of 20,1,Image 2 of 5,1,market,5,1
1001,testBlock,centre_mouse,46,322,reveal,im0000050.jpg,N_1.png,1,N_2.png,2,N_3.png,3,N_4.png,4,Y_1.png,1,Y_2.png,2,Y_3.png,3,Y_4.png,4,confidence.png,1,guessing.png,2,respond_yes.png,3,respond_no.png,4,Word 20 of 20,1,Image 2 of 5,1,reveal.png,5,1
1002,practiceBlock,practice,1,0,0,Picture1.jpg,+,1,Picture1.jpg,1,mask3.jpg,3,mask1.jpg,1,mask5.jpg,5,mask3.jpg,3,mask1.jpg,1,0,0,0,0,0,0,0,0,0,0,0,0,0,0,0,0,2
1002,practiceBlock,centre_mouse,2,12547,reveal,Picture1.jpg,N_1.png,1,N_2.png,2,N_3.png,3,N_4.png,4,Y_1.png,1,Y_2.png,2,Y_3.png,3,Y_4.png,4,confidence.png,1,guessing.png,2,respond_yes.png,3,respond_no.png,4,Word 0 of 12,1,Image 1 of 3,1,reveal.png,5,2
1002,practiceBlock,practice_present_trial,3,3613,yes_3,Picture1.jpg,N_1.png,1,N_2.png,2,N_3.png,3,N_4.png,4,Y_1.png,1,Y_2.png,2,Y_3.png,3,Y_4.png,4,confidence.png,1,guessing.png,2,respond_yes.png,3,respond_no.png,4,Word 1 of 12,1,Image 1 of 3,1,color,6,2
1002,practiceBlock,centre_mouse,4,1822,reveal,Picture1.jpg,N_1.png,1,N_2.png,2,N_3.png,3,N_4.png,4,Y_1.png,1,Y_2.png,2,Y_3.png,3,Y_4.png,4,confidence.png,1,guessing.png,2,respond_yes.png,3,respond_no.png,4,Word 1 of 12,1,Image 1 of 3,1,reveal.png,5,2
1002,practiceBlock,practice_absent_trial,5,5157,no_2,Picture1.jpg,N_1.png,1,N_2.png,2,N_3.png,3,N_4.png,4,Y_1.png,1,Y_2.png,2,Y_3.png,3,Y_4.png,4,confidence.png,1,guessing.png,2,respond_yes.png,3,respond_no.png,4,Word 2 of 12,1,Image 1 of 3,1,dome,5,2
1002,practiceBlock,centre_mouse,6,2807,reveal,Picture1.jpg,N_1.png,1,N_2.png,2,N_3.png,3,N_4.png,4,Y_1.png,1,Y_2.png,2,Y_3.png,3,Y_4.png,4,confidence.png,1,guessing.png,2,respond_yes.png,3,respond_no.png,4,Word 2 of 12,1,Image 1 of 3,1,reveal.png,5,2
1002,practiceBlock,practice_present_trial,7,3592,no_4,Picture1.jpg,N_1.png,1,N_2.png,2,N_3.png,3,N_4.png,4,Y_1.png,1,Y_2.png,2,Y_3.png,3,Y_4.png,4,confidence.png,1,guessing.png,2,respond_yes.png,3,respond_no.png,4,Word 3 of 12,1,Image 1 of 3,1,black,4,2
1002,practiceBlock,centre_mouse,8,2243,reveal,Picture1.jpg,N_1.png,1,N_2.png,2,N_3.png,3,N_4.png,4,Y_1.png,1,Y_2.png,2,Y_3.png,3,Y_4.png,4,confidence.png,1,guessing.png,2,respond_yes.png,3,respond_no.png,4,Word 3 of 12,1,Image 1 of 3,1,reveal.png,5,2
1002,practiceBlock,practice_present_trial,9,3446,yes_1,Picture1.jpg,N_1.png,1,N_2.png,2,N_3.png,3,N_4.png,4,Y_1.png,1,Y_2.png,2,Y_3.png,3,Y_4.png,4,confidence.png,1,guessing.png,2,respond_yes.png,3,respond_no.png,4,Word 4 of 12,1,Image 1 of 3,1,red,3,2
1002,practiceBlock,centre_mouse,10,1079,reveal,Picture1.jpg,N_1.png,1,N_2.png,2,N_3.png,3,N_4.png,4,Y_1.png,1,Y_2.png,2,Y_3.png,3,Y_4.png,4,confidence.png,1,guessing.png,2,respond_yes.png,3,respond_no.png,4,Word 4 of 12,1,Image 1 of 3,1,reveal.png,5,2
1002,practiceBlock,practice_absent_trial,11,491,no_1,Picture1.jpg,N_1.png,1,N_2.png,2,N_3.png,3,N_4.png,4,Y_1.png,1,Y_2.png,2,Y_3.png,3,Y_4.png,4,confidence.png,1,guessing.png,2,respond_yes.png,3,respond_no.png,4,Word 5 of 12,1,Image 1 of 3,1,blanket,1,2
1002,practiceBlock,centre_mouse,12,1833,reveal,Picture1.jpg,N_1.png,1,N_2.png,2,N_3.png,3,N_4.png,4,Y_1.png,1,Y_2.png,2,Y_3.png,3,Y_4.png,4,confidence.png,1,guessing.png,2,respond_yes.png,3,respond_no.png,4,Word 5 of 12,1,Image 1 of 3,1,reveal.png,5,2
1002,practiceBlock,practice_present_trial,13,827,no_4,Picture1.jpg,N_1.png,1,N_2.png,2,N_3.png,3,N_4.png,4,Y_1.png,1,Y_2.png,2,Y_3.png,3,Y_4.png,4,confidence.png,1,guessing.png,2,respond_yes.png,3,respond_no.png,4,Word 6 of 12,1,Image 1 of 3,1,love,2,2
1002,practiceBlock,centre_mouse,14,1492,reveal,Picture1.jpg,N_1.png,1,N_2.png,2,N_3.png,3,N_4.png,4,Y_1.png,1,Y_2.png,2,Y_3.png,3,Y_4.png,4,confidence.png,1,guessing.png,2,respond_yes.png,3,respond_no.png,4,Word 6 of 12,1,Image 1 of 3,1,reveal.png,5,2
1002,practiceBlock,practice_absent_trial,15,526,yes_3,Picture1.jpg,N_1.png,1,N_2.png,2,N_3.png,3,N_4.png,4,Y_1.png,1,Y_2.png,2,Y_3.png,3,Y_4.png,4,confidence.png,1,guessing.png,2,respond_yes.png,3,respond_no.png,4,Word 7 of 12,1,Image 1 of 3,1,day,4,2
1002,practiceBlock,centre_mouse,16,954,reveal,Picture1.jpg,N_1.png,1,N_2.png,2,N_3.png,3,N_4.png,4,Y_1.png,1,Y_2.png,2,Y_3.png,3,Y_4.png,4,confidence.png,1,guessing.png,2,respond_yes.png,3,respond_no.png,4,Word 7 of 12,1,Image 1 of 3,1,reveal.png,5,2
1002,practiceBlock,practice_absent_trial,17,446,yes_4,Picture1.jpg,N_1.png,1,N_2.png,2,N_3.png,3,N_4.png,4,Y_1.png,1,Y_2.png,2,Y_3.png,3,Y_4.png,4,confidence.png,1,guessing.png,2,respond_yes.png,3,respond_no.png,4,Word 8 of 12,1,Image 1 of 3,1,crow,2,2
1002,practiceBlock,centre_mouse,18,4536,reveal,Picture1.jpg,N_1.png,1,N_2.png,2,N_3.png,3,N_4.png,4,Y_1.png,1,Y_2.png,2,Y_3.png,3,Y_4.png,4,confidence.png,1,guessing.png,2,respond_yes.png,3,respond_no.png,4,Word 8 of 12,1,Image 1 of 3,1,reveal.png,5,2
1002,practiceBlock,practice_present_trial,19,2943,no_4,Picture1.jpg,N_1.png,1,N_2.png,2,N_3.png,3,N_4.png,4,Y_1.png,1,Y_2.png,2,Y_3.png,3,Y_4.png,4,confidence.png,1,guessing.png,2,respond_yes.png,3,respond_no.png,4,Word 9 of 12,1,Image 1 of 3,1,heart,1,2
1002,practiceBlock,centre_mouse,20,1442,reveal,Picture1.jpg,N_1.png,1,N_2.png,2,N_3.png,3,N_4.png,4,Y_1.png,1,Y_2.png,2,Y_3.png,3,Y_4.png,4,confidence.png,1,guessing.png,2,respond_yes.png,3,respond_no.png,4,Word 9 of 12,1,Image 1 of 3,1,reveal.png,5,2
1002,practiceBlock,practice_absent_trial,21,757,yes_4,Picture1.jpg,N_1.png,1,N_2.png,2,N_3.png,3,N_4.png,4,Y_1.png,1,Y_2.png,2,Y_3.png,3,Y_4.png,4,confidence.png,1,guessing.png,2,respond_yes.png,3,respond_no.png,4,Word 10 of 12,1,Image 1 of 3,1,line,6,2
1002,practiceBlock,centre_mouse,22,1024,reveal,Picture1.jpg,N_1.png,1,N_2.png,2,N_3.png,3,N_4.png,4,Y_1.png,1,Y_2.png,2,Y_3.png,3,Y_4.png,4,confidence.png,1,guessing.png,2,respond_yes.png,3,respond_no.png,4,Word 10 of 12,1,Image 1 of 3,1,reveal.png,5,2
1002,practiceBlock,practice_present_trial,23,1005,no_2,Picture1.jpg,N_1.png,1,N_2.png,2,N_3.png,3,N_4.png,4,Y_1.png,1,Y_2.png,2,Y_3.png,3,Y_4.png,4,confidence.png,1,guessing.png,2,respond_yes.png,3,respond_no.png,4,Word 11 of 12,1,Image 1 of 3,1,outline,5,2
1002,practiceBlock,centre_mouse,24,952,reveal,Picture1.jpg,N_1.png,1,N_2.png,2,N_3.png,3,N_4.png,4,Y_1.png,1,Y_2.png,2,Y_3.png,3,Y_4.png,4,confidence.png,1,guessing.png,2,respond_yes.png,3,respond_no.png,4,Word 11 of 12,1,Image 1 of 3,1,reveal.png,5,2
1002,practiceBlock,practice_absent_trial,25,527,no_3,Picture1.jpg,N_1.png,1,N_2.png,2,N_3.png,3,N_4.png,4,Y_1.png,1,Y_2.png,2,Y_3.png,3,Y_4.png,4,confidence.png,1,guessing.png,2,respond_yes.png,3,respond_no.png,4,Word 12 of 12,1,Image 1 of 3,1,wall,3,2
1002,practiceBlock,centre_mouse,26,969,reveal,Picture1.jpg,N_1.png,1,N_2.png,2,N_3.png,3,N_4.png,4,Y_1.png,1,Y_2.png,2,Y_3.png,3,Y_4.png,4,confidence.png,1,guessing.png,2,respond_yes.png,3,respond_no.png,4,Word 12 of 12,1,Image 1 of 3,1,reveal.png,5,2
1002,practiceBlock,catch_absent_trial,27,619,no_3,Picture1.jpg,N_1.png,1,N_2.png,2,N_3.png,3,N_4.png,4,Y_1.png,1,Y_2.png,2,Y_3.png,3,Y_4.png,4,confidence.png,1,guessing.png,2,respond_yes.png,3,respond_no.png,4,Word 12 of 12,1,Image 1 of 3,1,PRESS: No 4,4,2
1002,practiceBlock,centre_mouse,28,5185,reveal,Picture1.jpg,N_1.png,1,N_2.png,2,N_3.png,3,N_4.png,4,Y_1.png,1,Y_2.png,2,Y_3.png,3,Y_4.png,4,confidence.png,1,guessing.png,2,respond_yes.png,3,respond_no.png,4,Word 12 of 12,1,Image 1 of 3,1,reveal.png,5,2
1002,practiceBlock,catch_present_trial,29,2867,yes_2,Picture1.jpg,N_1.png,1,N_2.png,2,N_3.png,3,N_4.png,4,Y_1.png,1,Y_2.png,2,Y_3.png,3,Y_4.png,4,confidence.png,1,guessing.png,2,respond_yes.png,3,respond_no.png,4,Word 12 of 12,1,Image 1 of 3,1,PRESS: Yes 2,2,2
1002,practiceBlock,centre_mouse,30,2074,reveal,Picture1.jpg,N_1.png,1,N_2.png,2,N_3.png,3,N_4.png,4,Y_1.png,1,Y_2.png,2,Y_3.png,3,Y_4.png,4,confidence.png,1,guessing.png,2,respond_yes.png,3,respond_no.png,4,Word 12 of 12,1,Image 1 of 3,1,reveal.png,5,2
1002,practiceBlock,practice,1,0,0,Picture1.jpg,+,1,Picture2.jpg,2,mask4.jpg,4,mask3.jpg,3,mask1.jpg,1,mask1.jpg,1,mask4.jpg,4,0,0,0,0,0,0,0,0,0,0,0,0,0,0,0,0,2
1002,practiceBlock,centre_mouse,2,3684,reveal,Picture1.jpg,N_1.png,1,N_2.png,2,N_3.png,3,N_4.png,4,Y_1.png,1,Y_2.png,2,Y_3.png,3,Y_4.png,4,confidence.png,1,guessing.png,2,respond_yes.png,3,respond_no.png,4,Word 0 of 12,1,Image 2 of 3,1,reveal.png,5,2
1002,practiceBlock,practice_absent_trial,3,3525,yes_2,Picture2.jpg,N_1.png,1,N_2.png,2,N_3.png,3,N_4.png,4,Y_1.png,1,Y_2.png,2,Y_3.png,3,Y_4.png,4,confidence.png,1,guessing.png,2,respond_yes.png,3,respond_no.png,4,Word 1 of 12,1,Image 2 of 3,1,walk,1,2
1002,practiceBlock,centre_mouse,4,923,reveal,Picture2.jpg,N_1.png,1,N_2.png,2,N_3.png,3,N_4.png,4,Y_1.png,1,Y_2.png,2,Y_3.png,3,Y_4.png,4,confidence.png,1,guessing.png,2,respond_yes.png,3,respond_no.png,4,Word 1 of 12,1,Image 2 of 3,1,reveal.png,5,2
1002,practiceBlock,practice_absent_trial,5,3667,yes_3,Picture2.jpg,N_1.png,1,N_2.png,2,N_3.png,3,N_4.png,4,Y_1.png,1,Y_2.png,2,Y_3.png,3,Y_4.png,4,confidence.png,1,guessing.png,2,respond_yes.png,3,respond_no.png,4,Word 2 of 12,1,Image 2 of 3,1,beauty,2,2
1002,practiceBlock,centre_mouse,6,918,reveal,Picture2.jpg,N_1.png,1,N_2.png,2,N_3.png,3,N_4.png,4,Y_1.png,1,Y_2.png,2,Y_3.png,3,Y_4.png,4,confidence.png,1,guessing.png,2,respond_yes.png,3,respond_no.png,4,Word 2 of 12,1,Image 2 of 3,1,reveal.png,5,2
1002,practiceBlock,practice_absent_trial,7,2638,no_3,Picture2.jpg,N_1.png,1,N_2.png,2,N_3.png,3,N_4.png,4,Y_1.png,1,Y_2.png,2,Y_3.png,3,Y_4.png,4,confidence.png,1,guessing.png,2,respond_yes.png,3,respond_no.png,4,Word 3 of 12,1,Image 2 of 3,1,grey-clothes,4,2
1002,practiceBlock,centre_mouse,8,2761,reveal,Picture2.jpg,N_1.png,1,N_2.png,2,N_3.png,3,N_4.png,4,Y_1.png,1,Y_2.png,2,Y_3.png,3,Y_4.png,4,confidence.png,1,guessing.png,2,respond_yes.png,3,respond_no.png,4,Word 3 of 12,1,Image 2 of 3,1,reveal.png,5,2
1002,practiceBlock,practice_absent_trial,9,2846,no_4,Picture2.jpg,N_1.png,1,N_2.png,2,N_3.png,3,N_4.png,4,Y_1.png,1,Y_2.png,2,Y_3.png,3,Y_4.png,4,confidence.png,1,guessing.png,2,respond_yes.png,3,respond_no.png,4,Word 4 of 12,1,Image 2 of 3,1,metal,3,2
1002,practiceBlock,centre_mouse,10,1194,reveal,Picture2.jpg,N_1.png,1,N_2.png,2,N_3.png,3,N_4.png,4,Y_1.png,1,Y_2.png,2,Y_3.png,3,Y_4.png,4,confidence.png,1,guessing.png,2,respond_yes.png,3,respond_no.png,4,Word 4 of 12,1,Image 2 of 3,1,reveal.png,5,2
1002,practiceBlock,practice_present_trial,11,2456,yes_4,Picture2.jpg,N_1.png,1,N_2.png,2,N_3.png,3,N_4.png,4,Y_1.png,1,Y_2.png,2,Y_3.png,3,Y_4.png,4,confidence.png,1,guessing.png,2,respond_yes.png,3,respond_no.png,4,Word 5 of 12,1,Image 2 of 3,1,yellow,2,2
1002,practiceBlock,centre_mouse,12,1183,reveal,Picture2.jpg,N_1.png,1,N_2.png,2,N_3.png,3,N_4.png,4,Y_1.png,1,Y_2.png,2,Y_3.png,3,Y_4.png,4,confidence.png,1,guessing.png,2,respond_yes.png,3,respond_no.png,4,Word 5 of 12,1,Image 2 of 3,1,reveal.png,5,2
1002,practiceBlock,practice_present_trial,13,1546,yes_4,Picture2.jpg,N_1.png,1,N_2.png,2,N_3.png,3,N_4.png,4,Y_1.png,1,Y_2.png,2,Y_3.png,3,Y_4.png,4,confidence.png,1,guessing.png,2,respond_yes.png,3,respond_no.png,4,Word 6 of 12,1,Image 2 of 3,1,smile,4,2
1002,practiceBlock,centre_mouse,14,1263,reveal,Picture2.jpg,N_1.png,1,N_2.png,2,N_3.png,3,N_4.png,4,Y_1.png,1,Y_2.png,2,Y_3.png,3,Y_4.png,4,confidence.png,1,guessing.png,2,respond_yes.png,3,respond_no.png,4,Word 6 of 12,1,Image 2 of 3,1,reveal.png,5,2
1002,practiceBlock,practice_absent_trial,15,1879,no_4,Picture2.jpg,N_1.png,1,N_2.png,2,N_3.png,3,N_4.png,4,Y_1.png,1,Y_2.png,2,Y_3.png,3,Y_4.png,4,confidence.png,1,guessing.png,2,respond_yes.png,3,respond_no.png,4,Word 7 of 12,1,Image 2 of 3,1,anxious,5,2
1002,practiceBlock,centre_mouse,16,1062,reveal,Picture2.jpg,N_1.png,1,N_2.png,2,N_3.png,3,N_4.png,4,Y_1.png,1,Y_2.png,2,Y_3.png,3,Y_4.png,4,confidence.png,1,guessing.png,2,respond_yes.png,3,respond_no.png,4,Word 7 of 12,1,Image 2 of 3,1,reveal.png,5,2
1002,practiceBlock,practice_present_trial,17,1830,yes_4,Picture2.jpg,N_1.png,1,N_2.png,2,N_3.png,3,N_4.png,4,Y_1.png,1,Y_2.png,2,Y_3.png,3,Y_4.png,4,confidence.png,1,guessing.png,2,respond_yes.png,3,respond_no.png,4,Word 8 of 12,1,Image 2 of 3,1,eyes,3,2
1002,practiceBlock,centre_mouse,18,1200,reveal,Picture2.jpg,N_1.png,1,N_2.png,2,N_3.png,3,N_4.png,4,Y_1.png,1,Y_2.png,2,Y_3.png,3,Y_4.png,4,confidence.png,1,guessing.png,2,respond_yes.png,3,respond_no.png,4,Word 8 of 12,1,Image 2 of 3,1,reveal.png,5,2
1002,practiceBlock,practice_absent_trial,19,1878,no_4,Picture2.jpg,N_1.png,1,N_2.png,2,N_3.png,3,N_4.png,4,Y_1.png,1,Y_2.png,2,Y_3.png,3,Y_4.png,4,confidence.png,1,guessing.png,2,respond_yes.png,3,respond_no.png,4,Word 9 of 12,1,Image 2 of 3,1,man,6,2
1002,practiceBlock,centre_mouse,20,992,reveal,Picture2.jpg,N_1.png,1,N_2.png,2,N_3.png,3,N_4.png,4,Y_1.png,1,Y_2.png,2,Y_3.png,3,Y_4.png,4,confidence.png,1,guessing.png,2,respond_yes.png,3,respond_no.png,4,Word 9 of 12,1,Image 2 of 3,1,reveal.png,5,2
1002,practiceBlock,practice_present_trial,21,1708,yes_4,Picture2.jpg,N_1.png,1,N_2.png,2,N_3.png,3,N_4.png,4,Y_1.png,1,Y_2.png,2,Y_3.png,3,Y_4.png,4,confidence.png,1,guessing.png,2,respond_yes.png,3,respond_no.png,4,Word 10 of 12,1,Image 2 of 3,1,emoji,6,2
1002,practiceBlock,centre_mouse,22,912,reveal,Picture2.jpg,N_1.png,1,N_2.png,2,N_3.png,3,N_4.png,4,Y_1.png,1,Y_2.png,2,Y_3.png,3,Y_4.png,4,confidence.png,1,guessing.png,2,respond_yes.png,3,respond_no.png,4,Word 10 of 12,1,Image 2 of 3,1,reveal.png,5,2
1002,practiceBlock,practice_present_trial,23,2433,no_4,Picture2.jpg,N_1.png,1,N_2.png,2,N_3.png,3,N_4.png,4,Y_1.png,1,Y_2.png,2,Y_3.png,3,Y_4.png,4,confidence.png,1,guessing.png,2,respond_yes.png,3,respond_no.png,4,Word 11 of 12,1,Image 2 of 3,1,face,1,2
1002,practiceBlock,centre_mouse,24,832,reveal,Picture2.jpg,N_1.png,1,N_2.png,2,N_3.png,3,N_4.png,4,Y_1.png,1,Y_2.png,2,Y_3.png,3,Y_4.png,4,confidence.png,1,guessing.png,2,respond_yes.png,3,respond_no.png,4,Word 11 of 12,1,Image 2 of 3,1,reveal.png,5,2
1002,practiceBlock,practice_present_trial,25,1426,yes_4,Picture2.jpg,N_1.png,1,N_2.png,2,N_3.png,3,N_4.png,4,Y_1.png,1,Y_2.png,2,Y_3.png,3,Y_4.png,4,confidence.png,1,guessing.png,2,respond_yes.png,3,respond_no.png,4,Word 12 of 12,1,Image 2 of 3,1,happy,5,2
1002,practiceBlock,centre_mouse,26,1383,reveal,Picture2.jpg,N_1.png,1,N_2.png,2,N_3.png,3,N_4.png,4,Y_1.png,1,Y_2.png,2,Y_3.png,3,Y_4.png,4,confidence.png,1,guessing.png,2,respond_yes.png,3,respond_no.png,4,Word 12 of 12,1,Image 2 of 3,1,reveal.png,5,2
1002,practiceBlock,catch_present_trial,27,2143,yes_3,Picture2.jpg,N_1.png,1,N_2.png,2,N_3.png,3,N_4.png,4,Y_1.png,1,Y_2.png,2,Y_3.png,3,Y_4.png,4,confidence.png,1,guessing.png,2,respond_yes.png,3,respond_no.png,4,Word 12 of 12,1,Image 2 of 3,1,PRESS: Yes 3,3,2
1002,practiceBlock,centre_mouse,28,1339,reveal,Picture2.jpg,N_1.png,1,N_2.png,2,N_3.png,3,N_4.png,4,Y_1.png,1,Y_2.png,2,Y_3.png,3,Y_4.png,4,confidence.png,1,guessing.png,2,respond_yes.png,3,respond_no.png,4,Word 12 of 12,1,Image 2 of 3,1,reveal.png,5,2
1002,practiceBlock,catch_absent_trial,29,2770,no_3,Picture2.jpg,N_1.png,1,N_2.png,2,N_3.png,3,N_4.png,4,Y_1.png,1,Y_2.png,2,Y_3.png,3,Y_4.png,4,confidence.png,1,guessing.png,2,respond_yes.png,3,respond_no.png,4,Word 12 of 12,1,Image 2 of 3,1,PRESS: No 3,3,2
1002,practiceBlock,centre_mouse,30,1278,reveal,Picture2.jpg,N_1.png,1,N_2.png,2,N_3.png,3,N_4.png,4,Y_1.png,1,Y_2.png,2,Y_3.png,3,Y_4.png,4,confidence.png,1,guessing.png,2,respond_yes.png,3,respond_no.png,4,Word 12 of 12,1,Image 2 of 3,1,reveal.png,5,2
1002,practiceBlock,practice,1,0,0,Picture2.jpg,+,1,Picture3.jpg,3,mask5.jpg,5,mask4.jpg,4,mask4.jpg,4,mask5.jpg,5,mask2.jpg,2,0,0,0,0,0,0,0,0,0,0,0,0,0,0,0,0,2
1002,practiceBlock,centre_mouse,2,2416,reveal,Picture2.jpg,N_1.png,1,N_2.png,2,N_3.png,3,N_4.png,4,Y_1.png,1,Y_2.png,2,Y_3.png,3,Y_4.png,4,confidence.png,1,guessing.png,2,respond_yes.png,3,respond_no.png,4,Word 0 of 12,1,Image 3 of 3,1,reveal.png,5,2
1002,practiceBlock,practice_present_trial,3,2157,yes_4,Picture3.jpg,N_1.png,1,N_2.png,2,N_3.png,3,N_4.png,4,Y_1.png,1,Y_2.png,2,Y_3.png,3,Y_4.png,4,confidence.png,1,guessing.png,2,respond_yes.png,3,respond_no.png,4,Word 1 of 12,1,Image 3 of 3,1,landscape,4,2
1002,practiceBlock,centre_mouse,4,923,reveal,Picture3.jpg,N_1.png,1,N_2.png,2,N_3.png,3,N_4.png,4,Y_1.png,1,Y_2.png,2,Y_3.png,3,Y_4.png,4,confidence.png,1,guessing.png,2,respond_yes.png,3,respond_no.png,4,Word 1 of 12,1,Image 3 of 3,1,reveal.png,5,2
1002,practiceBlock,practice_absent_trial,5,2819,no_3,Picture3.jpg,N_1.png,1,N_2.png,2,N_3.png,3,N_4.png,4,Y_1.png,1,Y_2.png,2,Y_3.png,3,Y_4.png,4,confidence.png,1,guessing.png,2,respond_yes.png,3,respond_no.png,4,Word 2 of 12,1,Image 3 of 3,1,zoomed-in,1,2
1002,practiceBlock,centre_mouse,6,1028,reveal,Picture3.jpg,N_1.png,1,N_2.png,2,N_3.png,3,N_4.png,4,Y_1.png,1,Y_2.png,2,Y_3.png,3,Y_4.png,4,confidence.png,1,guessing.png,2,respond_yes.png,3,respond_no.png,4,Word 2 of 12,1,Image 3 of 3,1,reveal.png,5,2
1002,practiceBlock,practice_present_trial,7,2236,yes_4,Picture3.jpg,N_1.png,1,N_2.png,2,N_3.png,3,N_4.png,4,Y_1.png,1,Y_2.png,2,Y_3.png,3,Y_4.png,4,confidence.png,1,guessing.png,2,respond_yes.png,3,respond_no.png,4,Word 3 of 12,1,Image 3 of 3,1,sun,2,2
1002,practiceBlock,centre_mouse,8,847,reveal,Picture3.jpg,N_1.png,1,N_2.png,2,N_3.png,3,N_4.png,4,Y_1.png,1,Y_2.png,2,Y_3.png,3,Y_4.png,4,confidence.png,1,guessing.png,2,respond_yes.png,3,respond_no.png,4,Word 3 of 12,1,Image 3 of 3,1,reveal.png,5,2
1002,practiceBlock,practice_absent_trial,9,1892,yes_4,Picture3.jpg,N_1.png,1,N_2.png,2,N_3.png,3,N_4.png,4,Y_1.png,1,Y_2.png,2,Y_3.png,3,Y_4.png,4,confidence.png,1,guessing.png,2,respond_yes.png,3,respond_no.png,4,Word 4 of 12,1,Image 3 of 3,1,old,4,2
1002,practiceBlock,centre_mouse,10,864,reveal,Picture3.jpg,N_1.png,1,N_2.png,2,N_3.png,3,N_4.png,4,Y_1.png,1,Y_2.png,2,Y_3.png,3,Y_4.png,4,confidence.png,1,guessing.png,2,respond_yes.png,3,respond_no.png,4,Word 4 of 12,1,Image 3 of 3,1,reveal.png,5,2
1002,practiceBlock,practice_absent_trial,11,1386,no_4,Picture3.jpg,N_1.png,1,N_2.png,2,N_3.png,3,N_4.png,4,Y_1.png,1,Y_2.png,2,Y_3.png,3,Y_4.png,4,confidence.png,1,guessing.png,2,respond_yes.png,3,respond_no.png,4,Word 5 of 12,1,Image 3 of 3,1,horse,2,2
1002,practiceBlock,centre_mouse,12,883,reveal,Picture3.jpg,N_1.png,1,N_2.png,2,N_3.png,3,N_4.png,4,Y_1.png,1,Y_2.png,2,Y_3.png,3,Y_4.png,4,confidence.png,1,guessing.png,2,respond_yes.png,3,respond_no.png,4,Word 5 of 12,1,Image 3 of 3,1,reveal.png,5,2
1002,practiceBlock,practice_present_trial,13,1297,yes_4,Picture3.jpg,N_1.png,1,N_2.png,2,N_3.png,3,N_4.png,4,Y_1.png,1,Y_2.png,2,Y_3.png,3,Y_4.png,4,confidence.png,1,guessing.png,2,respond_yes.png,3,respond_no.png,4,Word 6 of 12,1,Image 3 of 3,1,cloud,3,2
1002,practiceBlock,centre_mouse,14,876,reveal,Picture3.jpg,N_1.png,1,N_2.png,2,N_3.png,3,N_4.png,4,Y_1.png,1,Y_2.png,2,Y_3.png,3,Y_4.png,4,confidence.png,1,guessing.png,2,respond_yes.png,3,respond_no.png,4,Word 6 of 12,1,Image 3 of 3,1,reveal.png,5,2
1002,practiceBlock,practice_absent_trial,15,1503,yes_4,Picture3.jpg,N_1.png,1,N_2.png,2,N_3.png,3,N_4.png,4,Y_1.png,1,Y_2.png,2,Y_3.png,3,Y_4.png,4,confidence.png,1,guessing.png,2,respond_yes.png,3,respond_no.png,4,Word 7 of 12,1,Image 3 of 3,1,stand,5,2
1002,practiceBlock,centre_mouse,16,772,reveal,Picture3.jpg,N_1.png,1,N_2.png,2,N_3.png,3,N_4.png,4,Y_1.png,1,Y_2.png,2,Y_3.png,3,Y_4.png,4,confidence.png,1,guessing.png,2,respond_yes.png,3,respond_no.png,4,Word 7 of 12,1,Image 3 of 3,1,reveal.png,5,2
1002,practiceBlock,practice_present_trial,17,1248,yes_4,Picture3.jpg,N_1.png,1,N_2.png,2,N_3.png,3,N_4.png,4,Y_1.png,1,Y_2.png,2,Y_3.png,3,Y_4.png,4,confidence.png,1,guessing.png,2,respond_yes.png,3,respond_no.png,4,Word 8 of 12,1,Image 3 of 3,1,sky,6,2
1002,practiceBlock,centre_mouse,18,783,reveal,Picture3.jpg,N_1.png,1,N_2.png,2,N_3.png,3,N_4.png,4,Y_1.png,1,Y_2.png,2,Y_3.png,3,Y_4.png,4,confidence.png,1,guessing.png,2,respond_yes.png,3,respond_no.png,4,Word 8 of 12,1,Image 3 of 3,1,reveal.png,5,2
1002,practiceBlock,practice_absent_trial,19,1787,no_4,Picture3.jpg,N_1.png,1,N_2.png,2,N_3.png,3,N_4.png,4,Y_1.png,1,Y_2.png,2,Y_3.png,3,Y_4.png,4,confidence.png,1,guessing.png,2,respond_yes.png,3,respond_no.png,4,Word 9 of 12,1,Image 3 of 3,1,coat,3,2
1002,practiceBlock,centre_mouse,20,793,reveal,Picture3.jpg,N_1.png,1,N_2.png,2,N_3.png,3,N_4.png,4,Y_1.png,1,Y_2.png,2,Y_3.png,3,Y_4.png,4,confidence.png,1,guessing.png,2,respond_yes.png,3,respond_no.png,4,Word 9 of 12,1,Image 3 of 3,1,reveal.png,5,2
1002,practiceBlock,practice_present_trial,21,1546,yes_4,Picture3.jpg,N_1.png,1,N_2.png,2,N_3.png,3,N_4.png,4,Y_1.png,1,Y_2.png,2,Y_3.png,3,Y_4.png,4,confidence.png,1,guessing.png,2,respond_yes.png,3,respond_no.png,4,Word 10 of 12,1,Image 3 of 3,1,blue,5,2
1002,practiceBlock,centre_mouse,22,793,reveal,Picture3.jpg,N_1.png,1,N_2.png,2,N_3.png,3,N_4.png,4,Y_1.png,1,Y_2.png,2,Y_3.png,3,Y_4.png,4,confidence.png,1,guessing.png,2,respond_yes.png,3,respond_no.png,4,Word 10 of 12,1,Image 3 of 3,1,reveal.png,5,2
1002,practiceBlock,practice_absent_trial,23,1942,no_4,Picture3.jpg,N_1.png,1,N_2.png,2,N_3.png,3,N_4.png,4,Y_1.png,1,Y_2.png,2,Y_3.png,3,Y_4.png,4,confidence.png,1,guessing.png,2,respond_yes.png,3,respond_no.png,4,Word 11 of 12,1,Image 3 of 3,1,blue-hat,6,2
1002,practiceBlock,centre_mouse,24,1029,reveal,Picture3.jpg,N_1.png,1,N_2.png,2,N_3.png,3,N_4.png,4,Y_1.png,1,Y_2.png,2,Y_3.png,3,Y_4.png,4,confidence.png,1,guessing.png,2,respond_yes.png,3,respond_no.png,4,Word 11 of 12,1,Image 3 of 3,1,reveal.png,5,2
1002,practiceBlock,practice_present_trial,25,1374,yes_4,Picture3.jpg,N_1.png,1,N_2.png,2,N_3.png,3,N_4.png,4,Y_1.png,1,Y_2.png,2,Y_3.png,3,Y_4.png,4,confidence.png,1,guessing.png,2,respond_yes.png,3,respond_no.png,4,Word 12 of 12,1,Image 3 of 3,1,mountain,1,2
1002,practiceBlock,centre_mouse,26,782,reveal,Picture3.jpg,N_1.png,1,N_2.png,2,N_3.png,3,N_4.png,4,Y_1.png,1,Y_2.png,2,Y_3.png,3,Y_4.png,4,confidence.png,1,guessing.png,2,respond_yes.png,3,respond_no.png,4,Word 12 of 12,1,Image 3 of 3,1,reveal.png,5,2
1002,practiceBlock,catch_present_trial,27,2497,yes_1,Picture3.jpg,N_1.png,1,N_2.png,2,N_3.png,3,N_4.png,4,Y_1.png,1,Y_2.png,2,Y_3.png,3,Y_4.png,4,confidence.png,1,guessing.png,2,respond_yes.png,3,respond_no.png,4,Word 12 of 12,1,Image 3 of 3,1,PRESS: Yes 1,1,2
1002,practiceBlock,centre_mouse,28,933,reveal,Picture3.jpg,N_1.png,1,N_2.png,2,N_3.png,3,N_4.png,4,Y_1.png,1,Y_2.png,2,Y_3.png,3,Y_4.png,4,confidence.png,1,guessing.png,2,respond_yes.png,3,respond_no.png,4,Word 12 of 12,1,Image 3 of 3,1,reveal.png,5,2
1002,practiceBlock,catch_absent_trial,29,1785,no_2,Picture3.jpg,N_1.png,1,N_2.png,2,N_3.png,3,N_4.png,4,Y_1.png,1,Y_2.png,2,Y_3.png,3,Y_4.png,4,confidence.png,1,guessing.png,2,respond_yes.png,3,respond_no.png,4,Word 12 of 12,1,Image 3 of 3,1,PRESS: No 2,2,2
1002,practiceBlock,centre_mouse,30,1374,reveal,Picture3.jpg,N_1.png,1,N_2.png,2,N_3.png,3,N_4.png,4,Y_1.png,1,Y_2.png,2,Y_3.png,3,Y_4.png,4,confidence.png,1,guessing.png,2,respond_yes.png,3,respond_no.png,4,Word 12 of 12,1,Image 3 of 3,1,reveal.png,5,2
1002,reset,reset,1,200,0,Picture3.jpg,0,0,0,0,0,0,0,0,0,0,0,0,0,0,0,0,0,0,0,0,0,0,0,0,0,0,0,0,0,0,2
1002,testBlock,test,1,0,0,im0000041.jpg,+,1,im0000050.jpg,2,mask2.jpg,2,mask2.jpg,2,mask2.jpg,2,mask2.jpg,2,mask5.jpg,5,0,0,0,0,0,0,0,0,0,0,0,0,0,0,0,0,2
1002,testBlock,centre_mouse,2,3051,reveal,im0000041.jpg,N_1.png,1,N_2.png,2,N_3.png,3,N_4.png,4,Y_1.png,1,Y_2.png,2,Y_3.png,3,Y_4.png,4,confidence.png,1,guessing.png,2,respond_yes.png,3,respond_no.png,4,Word 0 of 20,1,Image 1 of 5,1,reveal.png,5,2
1002,testBlock,absent_trial,3,2235,yes_4,im0000050.jpg,N_1.png,1,N_2.png,2,N_3.png,3,N_4.png,4,Y_1.png,1,Y_2.png,2,Y_3.png,3,Y_4.png,4,confidence.png,1,guessing.png,2,respond_yes.png,3,respond_no.png,4,Word 1 of 20,1,Image 1 of 5,1,work,28,2
1002,testBlock,centre_mouse,4,1815,reveal,im0000050.jpg,N_1.png,1,N_2.png,2,N_3.png,3,N_4.png,4,Y_1.png,1,Y_2.png,2,Y_3.png,3,Y_4.png,4,confidence.png,1,guessing.png,2,respond_yes.png,3,respond_no.png,4,Word 1 of 20,1,Image 1 of 5,1,reveal.png,5,2
1002,testBlock,absent_trial,5,1496,yes_4,im0000050.jpg,N_1.png,1,N_2.png,2,N_3.png,3,N_4.png,4,Y_1.png,1,Y_2.png,2,Y_3.png,3,Y_4.png,4,confidence.png,1,guessing.png,2,respond_yes.png,3,respond_no.png,4,Word 2 of 20,1,Image 1 of 5,1,place,32,2
1002,testBlock,centre_mouse,6,1130,reveal,im0000050.jpg,N_1.png,1,N_2.png,2,N_3.png,3,N_4.png,4,Y_1.png,1,Y_2.png,2,Y_3.png,3,Y_4.png,4,confidence.png,1,guessing.png,2,respond_yes.png,3,respond_no.png,4,Word 2 of 20,1,Image 1 of 5,1,reveal.png,5,2
1002,testBlock,present_trial,7,2179,yes_4,im0000050.jpg,N_1.png,1,N_2.png,2,N_3.png,3,N_4.png,4,Y_1.png,1,Y_2.png,2,Y_3.png,3,Y_4.png,4,confidence.png,1,guessing.png,2,respond_yes.png,3,respond_no.png,4,Word 3 of 20,1,Image 1 of 5,1,orange,7,2
1002,testBlock,centre_mouse,8,760,reveal,im0000050.jpg,N_1.png,1,N_2.png,2,N_3.png,3,N_4.png,4,Y_1.png,1,Y_2.png,2,Y_3.png,3,Y_4.png,4,confidence.png,1,guessing.png,2,respond_yes.png,3,respond_no.png,4,Word 3 of 20,1,Image 1 of 5,1,reveal.png,5,2
1002,testBlock,absent_trial,9,2658,yes_2,im0000050.jpg,N_1.png,1,N_2.png,2,N_3.png,3,N_4.png,4,Y_1.png,1,Y_2.png,2,Y_3.png,3,Y_4.png,4,confidence.png,1,guessing.png,2,respond_yes.png,3,respond_no.png,4,Word 4 of 20,1,Image 1 of 5,1,woman,31,2
1002,testBlock,centre_mouse,10,863,reveal,im0000050.jpg,N_1.png,1,N_2.png,2,N_3.png,3,N_4.png,4,Y_1.png,1,Y_2.png,2,Y_3.png,3,Y_4.png,4,confidence.png,1,guessing.png,2,respond_yes.png,3,respond_no.png,4,Word 4 of 20,1,Image 1 of 5,1,reveal.png,5,2
1002,testBlock,present_trial,11,1666,yes_4,im0000050.jpg,N_1.png,1,N_2.png,2,N_3.png,3,N_4.png,4,Y_1.png,1,Y_2.png,2,Y_3.png,3,Y_4.png,4,confidence.png,1,guessing.png,2,respond_yes.png,3,respond_no.png,4,Word 5 of 20,1,Image 1 of 5,1,store,8,2
1002,testBlock,centre_mouse,12,724,reveal,im0000050.jpg,N_1.png,1,N_2.png,2,N_3.png,3,N_4.png,4,Y_1.png,1,Y_2.png,2,Y_3.png,3,Y_4.png,4,confidence.png,1,guessing.png,2,respond_yes.png,3,respond_no.png,4,Word 5 of 20,1,Image 1 of 5,1,reveal.png,5,2
1002,testBlock,absent_trial,13,2202,yes_3,im0000050.jpg,N_1.png,1,N_2.png,2,N_3.png,3,N_4.png,4,Y_1.png,1,Y_2.png,2,Y_3.png,3,Y_4.png,4,confidence.png,1,guessing.png,2,respond_yes.png,3,respond_no.png,4,Word 6 of 20,1,Image 1 of 5,1,salesman,15,2
1002,testBlock,centre_mouse,14,839,reveal,im0000050.jpg,N_1.png,1,N_2.png,2,N_3.png,3,N_4.png,4,Y_1.png,1,Y_2.png,2,Y_3.png,3,Y_4.png,4,confidence.png,1,guessing.png,2,respond_yes.png,3,respond_no.png,4,Word 6 of 20,1,Image 1 of 5,1,reveal.png,5,2
1002,testBlock,present_trial,15,2269,yes_3,im0000050.jpg,N_1.png,1,N_2.png,2,N_3.png,3,N_4.png,4,Y_1.png,1,Y_2.png,2,Y_3.png,3,Y_4.png,4,confidence.png,1,guessing.png,2,respond_yes.png,3,respond_no.png,4,Word 7 of 20,1,Image 1 of 5,1,purchase,9,2
1002,testBlock,centre_mouse,16,918,reveal,im0000050.jpg,N_1.png,1,N_2.png,2,N_3.png,3,N_4.png,4,Y_1.png,1,Y_2.png,2,Y_3.png,3,Y_4.png,4,confidence.png,1,guessing.png,2,respond_yes.png,3,respond_no.png,4,Word 7 of 20,1,Image 1 of 5,1,reveal.png,5,2
1002,testBlock,present_trial,17,1436,yes_4,im0000050.jpg,N_1.png,1,N_2.png,2,N_3.png,3,N_4.png,4,Y_1.png,1,Y_2.png,2,Y_3.png,3,Y_4.png,4,confidence.png,1,guessing.png,2,respond_yes.png,3,respond_no.png,4,Word 8 of 20,1,Image 1 of 5,1,market,5,2
1002,testBlock,centre_mouse,18,982,reveal,im0000050.jpg,N_1.png,1,N_2.png,2,N_3.png,3,N_4.png,4,Y_1.png,1,Y_2.png,2,Y_3.png,3,Y_4.png,4,confidence.png,1,guessing.png,2,respond_yes.png,3,respond_no.png,4,Word 8 of 20,1,Image 1 of 5,1,reveal.png,5,2
1002,testBlock,catch_present_trial,19,1889,yes_4,im0000050.jpg,N_1.png,1,N_2.png,2,N_3.png,3,N_4.png,4,Y_1.png,1,Y_2.png,2,Y_3.png,3,Y_4.png,4,confidence.png,1,guessing.png,2,respond_yes.png,3,respond_no.png,4,Word 8 of 20,1,Image 1 of 5,1,PRESS: Yes 4,4,2
1002,testBlock,centre_mouse,20,1087,reveal,im0000050.jpg,N_1.png,1,N_2.png,2,N_3.png,3,N_4.png,4,Y_1.png,1,Y_2.png,2,Y_3.png,3,Y_4.png,4,confidence.png,1,guessing.png,2,respond_yes.png,3,respond_no.png,4,Word 8 of 20,1,Image 1 of 5,1,reveal.png,5,2
1002,testBlock,absent_trial,21,2620,no_3,im0000050.jpg,N_1.png,1,N_2.png,2,N_3.png,3,N_4.png,4,Y_1.png,1,Y_2.png,2,Y_3.png,3,Y_4.png,4,confidence.png,1,guessing.png,2,respond_yes.png,3,respond_no.png,4,Word 9 of 20,1,Image 1 of 5,1,cotton-shirt,25,2
1002,testBlock,centre_mouse,22,841,reveal,im0000050.jpg,N_1.png,1,N_2.png,2,N_3.png,3,N_4.png,4,Y_1.png,1,Y_2.png,2,Y_3.png,3,Y_4.png,4,confidence.png,1,guessing.png,2,respond_yes.png,3,respond_no.png,4,Word 9 of 20,1,Image 1 of 5,1,reveal.png,5,2
1002,testBlock,absent_trial,23,2807,yes_2,im0000050.jpg,N_1.png,1,N_2.png,2,N_3.png,3,N_4.png,4,Y_1.png,1,Y_2.png,2,Y_3.png,3,Y_4.png,4,confidence.png,1,guessing.png,2,respond_yes.png,3,respond_no.png,4,Word 10 of 20,1,Image 1 of 5,1,smile,12,2
1002,testBlock,centre_mouse,24,898,reveal,im0000050.jpg,N_1.png,1,N_2.png,2,N_3.png,3,N_4.png,4,Y_1.png,1,Y_2.png,2,Y_3.png,3,Y_4.png,4,confidence.png,1,guessing.png,2,respond_yes.png,3,respond_no.png,4,Word 10 of 20,1,Image 1 of 5,1,reveal.png,5,2
1002,testBlock,absent_trial,25,1688,no_2,im0000050.jpg,N_1.png,1,N_2.png,2,N_3.png,3,N_4.png,4,Y_1.png,1,Y_2.png,2,Y_3.png,3,Y_4.png,4,confidence.png,1,guessing.png,2,respond_yes.png,3,respond_no.png,4,Word 11 of 20,1,Image 1 of 5,1,wall,37,2
1002,testBlock,centre_mouse,26,957,reveal,im0000050.jpg,N_1.png,1,N_2.png,2,N_3.png,3,N_4.png,4,Y_1.png,1,Y_2.png,2,Y_3.png,3,Y_4.png,4,confidence.png,1,guessing.png,2,respond_yes.png,3,respond_no.png,4,Word 11 of 20,1,Image 1 of 5,1,reveal.png,5,2
1002,testBlock,present_trial,27,1368,yes_4,im0000050.jpg,N_1.png,1,N_2.png,2,N_3.png,3,N_4.png,4,Y_1.png,1,Y_2.png,2,Y_3.png,3,Y_4.png,4,confidence.png,1,guessing.png,2,respond_yes.png,3,respond_no.png,4,Word 12 of 20,1,Image 1 of 5,1,shop,3,2
1002,testBlock,centre_mouse,28,831,reveal,im0000050.jpg,N_1.png,1,N_2.png,2,N_3.png,3,N_4.png,4,Y_1.png,1,Y_2.png,2,Y_3.png,3,Y_4.png,4,confidence.png,1,guessing.png,2,respond_yes.png,3,respond_no.png,4,Word 12 of 20,1,Image 1 of 5,1,reveal.png,5,2
1002,testBlock,absent_trial,29,2197,yes_2,im0000050.jpg,N_1.png,1,N_2.png,2,N_3.png,3,N_4.png,4,Y_1.png,1,Y_2.png,2,Y_3.png,3,Y_4.png,4,confidence.png,1,guessing.png,2,respond_yes.png,3,respond_no.png,4,Word 13 of 20,1,Image 1 of 5,1,cool,38,2
1002,testBlock,centre_mouse,30,892,reveal,im0000050.jpg,N_1.png,1,N_2.png,2,N_3.png,3,N_4.png,4,Y_1.png,1,Y_2.png,2,Y_3.png,3,Y_4.png,4,confidence.png,1,guessing.png,2,respond_yes.png,3,respond_no.png,4,Word 13 of 20,1,Image 1 of 5,1,reveal.png,5,2
1002,testBlock,present_trial,31,1586,yes_4,im0000050.jpg,N_1.png,1,N_2.png,2,N_3.png,3,N_4.png,4,Y_1.png,1,Y_2.png,2,Y_3.png,3,Y_4.png,4,confidence.png,1,guessing.png,2,respond_yes.png,3,respond_no.png,4,Word 14 of 20,1,Image 1 of 5,1,people,4,2
1002,testBlock,centre_mouse,32,817,reveal,im0000050.jpg,N_1.png,1,N_2.png,2,N_3.png,3,N_4.png,4,Y_1.png,1,Y_2.png,2,Y_3.png,3,Y_4.png,4,confidence.png,1,guessing.png,2,respond_yes.png,3,respond_no.png,4,Word 14 of 20,1,Image 1 of 5,1,reveal.png,5,2
1002,testBlock,present_trial,33,1494,yes_4,im0000050.jpg,N_1.png,1,N_2.png,2,N_3.png,3,N_4.png,4,Y_1.png,1,Y_2.png,2,Y_3.png,3,Y_4.png,4,confidence.png,1,guessing.png,2,respond_yes.png,3,respond_no.png,4,Word 15 of 20,1,Image 1 of 5,1,apple,6,2
1002,testBlock,centre_mouse,34,871,reveal,im0000050.jpg,N_1.png,1,N_2.png,2,N_3.png,3,N_4.png,4,Y_1.png,1,Y_2.png,2,Y_3.png,3,Y_4.png,4,confidence.png,1,guessing.png,2,respond_yes.png,3,respond_no.png,4,Word 15 of 20,1,Image 1 of 5,1,reveal.png,5,2
1002,testBlock,present_trial,35,1628,yes_4,im0000050.jpg,N_1.png,1,N_2.png,2,N_3.png,3,N_4.png,4,Y_1.png,1,Y_2.png,2,Y_3.png,3,Y_4.png,4,confidence.png,1,guessing.png,2,respond_yes.png,3,respond_no.png,4,Word 16 of 20,1,Image 1 of 5,1,man,1,2
1002,testBlock,centre_mouse,36,765,reveal,im0000050.jpg,N_1.png,1,N_2.png,2,N_3.png,3,N_4.png,4,Y_1.png,1,Y_2.png,2,Y_3.png,3,Y_4.png,4,confidence.png,1,guessing.png,2,respond_yes.png,3,respond_no.png,4,Word 16 of 20,1,Image 1 of 5,1,reveal.png,5,2
1002,testBlock,catch_absent_trial,37,2520,no_1,im0000050.jpg,N_1.png,1,N_2.png,2,N_3.png,3,N_4.png,4,Y_1.png,1,Y_2.png,2,Y_3.png,3,Y_4.png,4,confidence.png,1,guessing.png,2,respond_yes.png,3,respond_no.png,4,Word 16 of 20,1,Image 1 of 5,1,PRESS: No 1,1,2
1002,testBlock,centre_mouse,38,3172,reveal,im0000050.jpg,N_1.png,1,N_2.png,2,N_3.png,3,N_4.png,4,Y_1.png,1,Y_2.png,2,Y_3.png,3,Y_4.png,4,confidence.png,1,guessing.png,2,respond_yes.png,3,respond_no.png,4,Word 16 of 20,1,Image 1 of 5,1,reveal.png,5,2
1002,testBlock,absent_trial,39,3722,no_3,im0000050.jpg,N_1.png,1,N_2.png,2,N_3.png,3,N_4.png,4,Y_1.png,1,Y_2.png,2,Y_3.png,3,Y_4.png,4,confidence.png,1,guessing.png,2,respond_yes.png,3,respond_no.png,4,Word 17 of 20,1,Image 1 of 5,1,historic,22,2
1002,testBlock,centre_mouse,40,1242,reveal,im0000050.jpg,N_1.png,1,N_2.png,2,N_3.png,3,N_4.png,4,Y_1.png,1,Y_2.png,2,Y_3.png,3,Y_4.png,4,confidence.png,1,guessing.png,2,respond_yes.png,3,respond_no.png,4,Word 17 of 20,1,Image 1 of 5,1,reveal.png,5,2
1002,testBlock,absent_trial,41,2447,yes_2,im0000050.jpg,N_1.png,1,N_2.png,2,N_3.png,3,N_4.png,4,Y_1.png,1,Y_2.png,2,Y_3.png,3,Y_4.png,4,confidence.png,1,guessing.png,2,respond_yes.png,3,respond_no.png,4,Word 18 of 20,1,Image 1 of 5,1,pole,39,2
1002,testBlock,centre_mouse,42,962,reveal,im0000050.jpg,N_1.png,1,N_2.png,2,N_3.png,3,N_4.png,4,Y_1.png,1,Y_2.png,2,Y_3.png,3,Y_4.png,4,confidence.png,1,guessing.png,2,respond_yes.png,3,respond_no.png,4,Word 18 of 20,1,Image 1 of 5,1,reveal.png,5,2
1002,testBlock,present_trial,43,1655,yes_4,im0000050.jpg,N_1.png,1,N_2.png,2,N_3.png,3,N_4.png,4,Y_1.png,1,Y_2.png,2,Y_3.png,3,Y_4.png,4,confidence.png,1,guessing.png,2,respond_yes.png,3,respond_no.png,4,Word 19 of 20,1,Image 1 of 5,1,banana,10,2
1002,testBlock,centre_mouse,44,693,reveal,im0000050.jpg,N_1.png,1,N_2.png,2,N_3.png,3,N_4.png,4,Y_1.png,1,Y_2.png,2,Y_3.png,3,Y_4.png,4,confidence.png,1,guessing.png,2,respond_yes.png,3,respond_no.png,4,Word 19 of 20,1,Image 1 of 5,1,reveal.png,5,2
1002,testBlock,present_trial,45,1141,yes_4,im0000050.jpg,N_1.png,1,N_2.png,2,N_3.png,3,N_4.png,4,Y_1.png,1,Y_2.png,2,Y_3.png,3,Y_4.png,4,confidence.png,1,guessing.png,2,respond_yes.png,3,respond_no.png,4,Word 20 of 20,1,Image 1 of 5,1,fruit,2,2
1002,testBlock,centre_mouse,46,813,reveal,im0000050.jpg,N_1.png,1,N_2.png,2,N_3.png,3,N_4.png,4,Y_1.png,1,Y_2.png,2,Y_3.png,3,Y_4.png,4,confidence.png,1,guessing.png,2,respond_yes.png,3,respond_no.png,4,Word 20 of 20,1,Image 1 of 5,1,reveal.png,5,2
1002,testBlock,test,1,0,0,im0000050.jpg,+,1,im0000056.jpg,3,mask1.jpg,1,mask5.jpg,5,mask3.jpg,3,mask4.jpg,4,mask3.jpg,3,0,0,0,0,0,0,0,0,0,0,0,0,0,0,0,0,2
1002,testBlock,centre_mouse,2,2827,reveal,im0000050.jpg,N_1.png,1,N_2.png,2,N_3.png,3,N_4.png,4,Y_1.png,1,Y_2.png,2,Y_3.png,3,Y_4.png,4,confidence.png,1,guessing.png,2,respond_yes.png,3,respond_no.png,4,Word 0 of 20,1,Image 2 of 5,1,reveal.png,5,2
1002,testBlock,present_trial,3,1636,yes_4,im0000056.jpg,N_1.png,1,N_2.png,2,N_3.png,3,N_4.png,4,Y_1.png,1,Y_2.png,2,Y_3.png,3,Y_4.png,4,confidence.png,1,guessing.png,2,respond_yes.png,3,respond_no.png,4,Word 1 of 20,1,Image 2 of 5,1,water,3,2
1002,testBlock,centre_mouse,4,1372,reveal,im0000056.jpg,N_1.png,1,N_2.png,2,N_3.png,3,N_4.png,4,Y_1.png,1,Y_2.png,2,Y_3.png,3,Y_4.png,4,confidence.png,1,guessing.png,2,respond_yes.png,3,respond_no.png,4,Word 1 of 20,1,Image 2 of 5,1,reveal.png,5,2
1002,testBlock,present_trial,5,1027,yes_4,im0000056.jpg,N_1.png,1,N_2.png,2,N_3.png,3,N_4.png,4,Y_1.png,1,Y_2.png,2,Y_3.png,3,Y_4.png,4,confidence.png,1,guessing.png,2,respond_yes.png,3,respond_no.png,4,Word 2 of 20,1,Image 2 of 5,1,sea,6,2
1002,testBlock,centre_mouse,6,898,reveal,im0000056.jpg,N_1.png,1,N_2.png,2,N_3.png,3,N_4.png,4,Y_1.png,1,Y_2.png,2,Y_3.png,3,Y_4.png,4,confidence.png,1,guessing.png,2,respond_yes.png,3,respond_no.png,4,Word 2 of 20,1,Image 2 of 5,1,reveal.png,5,2
1002,testBlock,absent_trial,7,2512,no_2,im0000056.jpg,N_1.png,1,N_2.png,2,N_3.png,3,N_4.png,4,Y_1.png,1,Y_2.png,2,Y_3.png,3,Y_4.png,4,confidence.png,1,guessing.png,2,respond_yes.png,3,respond_no.png,4,Word 3 of 20,1,Image 2 of 5,1,car,20,2
1002,testBlock,centre_mouse,8,1023,reveal,im0000056.jpg,N_1.png,1,N_2.png,2,N_3.png,3,N_4.png,4,Y_1.png,1,Y_2.png,2,Y_3.png,3,Y_4.png,4,confidence.png,1,guessing.png,2,respond_yes.png,3,respond_no.png,4,Word 3 of 20,1,Image 2 of 5,1,reveal.png,5,2
1002,testBlock,present_trial,9,1183,yes_4,im0000056.jpg,N_1.png,1,N_2.png,2,N_3.png,3,N_4.png,4,Y_1.png,1,Y_2.png,2,Y_3.png,3,Y_4.png,4,confidence.png,1,guessing.png,2,respond_yes.png,3,respond_no.png,4,Word 4 of 20,1,Image 2 of 5,1,daytime,9,2
1002,testBlock,centre_mouse,10,877,reveal,im0000056.jpg,N_1.png,1,N_2.png,2,N_3.png,3,N_4.png,4,Y_1.png,1,Y_2.png,2,Y_3.png,3,Y_4.png,4,confidence.png,1,guessing.png,2,respond_yes.png,3,respond_no.png,4,Word 4 of 20,1,Image 2 of 5,1,reveal.png,5,2
1002,testBlock,absent_trial,11,1127,yes_4,im0000056.jpg,N_1.png,1,N_2.png,2,N_3.png,3,N_4.png,4,Y_1.png,1,Y_2.png,2,Y_3.png,3,Y_4.png,4,confidence.png,1,guessing.png,2,respond_yes.png,3,respond_no.png,4,Word 5 of 20,1,Image 2 of 5,1,outside,22,2
1002,testBlock,centre_mouse,12,673,reveal,im0000056.jpg,N_1.png,1,N_2.png,2,N_3.png,3,N_4.png,4,Y_1.png,1,Y_2.png,2,Y_3.png,3,Y_4.png,4,confidence.png,1,guessing.png,2,respond_yes.png,3,respond_no.png,4,Word 5 of 20,1,Image 2 of 5,1,reveal.png,5,2
1002,testBlock,absent_trial,13,1377,yes_4,im0000056.jpg,N_1.png,1,N_2.png,2,N_3.png,3,N_4.png,4,Y_1.png,1,Y_2.png,2,Y_3.png,3,Y_4.png,4,confidence.png,1,guessing.png,2,respond_yes.png,3,respond_no.png,4,Word 6 of 20,1,Image 2 of 5,1,toad,32,2
1002,testBlock,centre_mouse,14,878,reveal,im0000056.jpg,N_1.png,1,N_2.png,2,N_3.png,3,N_4.png,4,Y_1.png,1,Y_2.png,2,Y_3.png,3,Y_4.png,4,confidence.png,1,guessing.png,2,respond_yes.png,3,respond_no.png,4,Word 6 of 20,1,Image 2 of 5,1,reveal.png,5,2
1002,testBlock,present_trial,15,2391,yes_4,im0000056.jpg,N_1.png,1,N_2.png,2,N_3.png,3,N_4.png,4,Y_1.png,1,Y_2.png,2,Y_3.png,3,Y_4.png,4,confidence.png,1,guessing.png,2,respond_yes.png,3,respond_no.png,4,Word 7 of 20,1,Image 2 of 5,1,city,2,2
1002,testBlock,centre_mouse,16,3146,reveal,im0000056.jpg,N_1.png,1,N_2.png,2,N_3.png,3,N_4.png,4,Y_1.png,1,Y_2.png,2,Y_3.png,3,Y_4.png,4,confidence.png,1,guessing.png,2,respond_yes.png,3,respond_no.png,4,Word 7 of 20,1,Image 2 of 5,1,reveal.png,5,2
1002,testBlock,absent_trial,17,2842,no_2,im0000056.jpg,N_1.png,1,N_2.png,2,N_3.png,3,N_4.png,4,Y_1.png,1,Y_2.png,2,Y_3.png,3,Y_4.png,4,confidence.png,1,guessing.png,2,respond_yes.png,3,respond_no.png,4,Word 8 of 20,1,Image 2 of 5,1,jarchee,10,2
1002,testBlock,centre_mouse,18,756,reveal,im0000056.jpg,N_1.png,1,N_2.png,2,N_3.png,3,N_4.png,4,Y_1.png,1,Y_2.png,2,Y_3.png,3,Y_4.png,4,confidence.png,1,guessing.png,2,respond_yes.png,3,respond_no.png,4,Word 8 of 20,1,Image 2 of 5,1,reveal.png,5,2
1002,testBlock,catch_absent_trial,19,1831,no_1,im0000056.jpg,N_1.png,1,N_2.png,2,N_3.png,3,N_4.png,4,Y_1.png,1,Y_2.png,2,Y_3.png,3,Y_4.png,4,confidence.png,1,guessing.png,2,respond_yes.png,3,respond_no.png,4,Word 8 of 20,1,Image 2 of 5,1,PRESS: No 1,1,2
1002,testBlock,centre_mouse,20,6718,reveal,im0000056.jpg,N_1.png,1,N_2.png,2,N_3.png,3,N_4.png,4,Y_1.png,1,Y_2.png,2,Y_3.png,3,Y_4.png,4,confidence.png,1,guessing.png,2,respond_yes.png,3,respond_no.png,4,Word 8 of 20,1,Image 2 of 5,1,reveal.png,5,2
1002,testBlock,present_trial,21,1312,yes_3,im0000056.jpg,N_1.png,1,N_2.png,2,N_3.png,3,N_4.png,4,Y_1.png,1,Y_2.png,2,Y_3.png,3,Y_4.png,4,confidence.png,1,guessing.png,2,respond_yes.png,3,respond_no.png,4,Word 9 of 20,1,Image 2 of 5,1,build,4,2
1002,testBlock,centre_mouse,22,839,reveal,im0000056.jpg,N_1.png,1,N_2.png,2,N_3.png,3,N_4.png,4,Y_1.png,1,Y_2.png,2,Y_3.png,3,Y_4.png,4,confidence.png,1,guessing.png,2,respond_yes.png,3,respond_no.png,4,Word 9 of 20,1,Image 2 of 5,1,reveal.png,5,2
1002,testBlock,absent_trial,23,2090,no_4,im0000056.jpg,N_1.png,1,N_2.png,2,N_3.png,3,N_4.png,4,Y_1.png,1,Y_2.png,2,Y_3.png,3,Y_4.png,4,confidence.png,1,guessing.png,2,respond_yes.png,3,respond_no.png,4,Word 10 of 20,1,Image 2 of 5,1,boy,8,2
1002,testBlock,centre_mouse,24,662,reveal,im0000056.jpg,N_1.png,1,N_2.png,2,N_3.png,3,N_4.png,4,Y_1.png,1,Y_2.png,2,Y_3.png,3,Y_4.png,4,confidence.png,1,guessing.png,2,respond_yes.png,3,respond_no.png,4,Word 10 of 20,1,Image 2 of 5,1,reveal.png,5,2
1002,testBlock,present_trial,25,1375,yes_4,im0000056.jpg,N_1.png,1,N_2.png,2,N_3.png,3,N_4.png,4,Y_1.png,1,Y_2.png,2,Y_3.png,3,Y_4.png,4,confidence.png,1,guessing.png,2,respond_yes.png,3,respond_no.png,4,Word 11 of 20,1,Image 2 of 5,1,building,1,2
1002,testBlock,centre_mouse,26,636,reveal,im0000056.jpg,N_1.png,1,N_2.png,2,N_3.png,3,N_4.png,4,Y_1.png,1,Y_2.png,2,Y_3.png,3,Y_4.png,4,confidence.png,1,guessing.png,2,respond_yes.png,3,respond_no.png,4,Word 11 of 20,1,Image 2 of 5,1,reveal.png,5,2
1002,testBlock,absent_trial,27,1771,no_4,im0000056.jpg,N_1.png,1,N_2.png,2,N_3.png,3,N_4.png,4,Y_1.png,1,Y_2.png,2,Y_3.png,3,Y_4.png,4,confidence.png,1,guessing.png,2,respond_yes.png,3,respond_no.png,4,Word 12 of 20,1,Image 2 of 5,1,festival,26,2
1002,testBlock,centre_mouse,28,868,reveal,im0000056.jpg,N_1.png,1,N_2.png,2,N_3.png,3,N_4.png,4,Y_1.png,1,Y_2.png,2,Y_3.png,3,Y_4.png,4,confidence.png,1,guessing.png,2,respond_yes.png,3,respond_no.png,4,Word 12 of 20,1,Image 2 of 5,1,reveal.png,5,2
1002,testBlock,absent_trial,29,1753,no_4,im0000056.jpg,N_1.png,1,N_2.png,2,N_3.png,3,N_4.png,4,Y_1.png,1,Y_2.png,2,Y_3.png,3,Y_4.png,4,confidence.png,1,guessing.png,2,respond_yes.png,3,respond_no.png,4,Word 13 of 20,1,Image 2 of 5,1,adult,15,2
1002,testBlock,centre_mouse,30,950,reveal,im0000056.jpg,N_1.png,1,N_2.png,2,N_3.png,3,N_4.png,4,Y_1.png,1,Y_2.png,2,Y_3.png,3,Y_4.png,4,confidence.png,1,guessing.png,2,respond_yes.png,3,respond_no.png,4,Word 13 of 20,1,Image 2 of 5,1,reveal.png,5,2
1002,testBlock,absent_trial,31,1579,no_4,im0000056.jpg,N_1.png,1,N_2.png,2,N_3.png,3,N_4.png,4,Y_1.png,1,Y_2.png,2,Y_3.png,3,Y_4.png,4,confidence.png,1,guessing.png,2,respond_yes.png,3,respond_no.png,4,Word 14 of 20,1,Image 2 of 5,1,grass,28,2
1002,testBlock,centre_mouse,32,722,reveal,im0000056.jpg,N_1.png,1,N_2.png,2,N_3.png,3,N_4.png,4,Y_1.png,1,Y_2.png,2,Y_3.png,3,Y_4.png,4,confidence.png,1,guessing.png,2,respond_yes.png,3,respond_no.png,4,Word 14 of 20,1,Image 2 of 5,1,reveal.png,5,2
1002,testBlock,present_trial,33,1108,yes_4,im0000056.jpg,N_1.png,1,N_2.png,2,N_3.png,3,N_4.png,4,Y_1.png,1,Y_2.png,2,Y_3.png,3,Y_4.png,4,confidence.png,1,guessing.png,2,respond_yes.png,3,respond_no.png,4,Word 15 of 20,1,Image 2 of 5,1,skyline,10,2
1002,testBlock,centre_mouse,34,1031,reveal,im0000056.jpg,N_1.png,1,N_2.png,2,N_3.png,3,N_4.png,4,Y_1.png,1,Y_2.png,2,Y_3.png,3,Y_4.png,4,confidence.png,1,guessing.png,2,respond_yes.png,3,respond_no.png,4,Word 15 of 20,1,Image 2 of 5,1,reveal.png,5,2
1002,testBlock,present_trial,35,1156,yes_4,im0000056.jpg,N_1.png,1,N_2.png,2,N_3.png,3,N_4.png,4,Y_1.png,1,Y_2.png,2,Y_3.png,3,Y_4.png,4,confidence.png,1,guessing.png,2,respond_yes.png,3,respond_no.png,4,Word 16 of 20,1,Image 2 of 5,1,sky,7,2
1002,testBlock,centre_mouse,36,972,reveal,im0000056.jpg,N_1.png,1,N_2.png,2,N_3.png,3,N_4.png,4,Y_1.png,1,Y_2.png,2,Y_3.png,3,Y_4.png,4,confidence.png,1,guessing.png,2,respond_yes.png,3,respond_no.png,4,Word 16 of 20,1,Image 2 of 5,1,reveal.png,5,2
1002,testBlock,catch_present_trial,37,1678,yes_4,im0000056.jpg,N_1.png,1,N_2.png,2,N_3.png,3,N_4.png,4,Y_1.png,1,Y_2.png,2,Y_3.png,3,Y_4.png,4,confidence.png,1,guessing.png,2,respond_yes.png,3,respond_no.png,4,Word 16 of 20,1,Image 2 of 5,1,PRESS: Yes 4,4,2
1002,testBlock,centre_mouse,38,1082,reveal,im0000056.jpg,N_1.png,1,N_2.png,2,N_3.png,3,N_4.png,4,Y_1.png,1,Y_2.png,2,Y_3.png,3,Y_4.png,4,confidence.png,1,guessing.png,2,respond_yes.png,3,respond_no.png,4,Word 16 of 20,1,Image 2 of 5,1,reveal.png,5,2
1002,testBlock,present_trial,39,1426,no_4,im0000056.jpg,N_1.png,1,N_2.png,2,N_3.png,3,N_4.png,4,Y_1.png,1,Y_2.png,2,Y_3.png,3,Y_4.png,4,confidence.png,1,guessing.png,2,respond_yes.png,3,respond_no.png,4,Word 17 of 20,1,Image 2 of 5,1,tree,8,2
1002,testBlock,centre_mouse,40,841,reveal,im0000056.jpg,N_1.png,1,N_2.png,2,N_3.png,3,N_4.png,4,Y_1.png,1,Y_2.png,2,Y_3.png,3,Y_4.png,4,confidence.png,1,guessing.png,2,respond_yes.png,3,respond_no.png,4,Word 17 of 20,1,Image 2 of 5,1,reveal.png,5,2
1002,testBlock,absent_trial,41,1749,yes_4,im0000056.jpg,N_1.png,1,N_2.png,2,N_3.png,3,N_4.png,4,Y_1.png,1,Y_2.png,2,Y_3.png,3,Y_4.png,4,confidence.png,1,guessing.png,2,respond_yes.png,3,respond_no.png,4,Word 18 of 20,1,Image 2 of 5,1,coat,3,2
1002,testBlock,centre_mouse,42,1106,reveal,im0000056.jpg,N_1.png,1,N_2.png,2,N_3.png,3,N_4.png,4,Y_1.png,1,Y_2.png,2,Y_3.png,3,Y_4.png,4,confidence.png,1,guessing.png,2,respond_yes.png,3,respond_no.png,4,Word 18 of 20,1,Image 2 of 5,1,reveal.png,5,2
1002,testBlock,absent_trial,43,2194,no_4,im0000056.jpg,N_1.png,1,N_2.png,2,N_3.png,3,N_4.png,4,Y_1.png,1,Y_2.png,2,Y_3.png,3,Y_4.png,4,confidence.png,1,guessing.png,2,respond_yes.png,3,respond_no.png,4,Word 19 of 20,1,Image 2 of 5,1,table,11,2
1002,testBlock,centre_mouse,44,770,reveal,im0000056.jpg,N_1.png,1,N_2.png,2,N_3.png,3,N_4.png,4,Y_1.png,1,Y_2.png,2,Y_3.png,3,Y_4.png,4,confidence.png,1,guessing.png,2,respond_yes.png,3,respond_no.png,4,Word 19 of 20,1,Image 2 of 5,1,reveal.png,5,2
1002,testBlock,present_trial,45,1560,no_4,im0000056.jpg,N_1.png,1,N_2.png,2,N_3.png,3,N_4.png,4,Y_1.png,1,Y_2.png,2,Y_3.png,3,Y_4.png,4,confidence.png,1,guessing.png,2,respond_yes.png,3,respond_no.png,4,Word 20 of 20,1,Image 2 of 5,1,people,5,2
1002,testBlock,centre_mouse,46,722,reveal,im0000056.jpg,N_1.png,1,N_2.png,2,N_3.png,3,N_4.png,4,Y_1.png,1,Y_2.png,2,Y_3.png,3,Y_4.png,4,confidence.png,1,guessing.png,2,respond_yes.png,3,respond_no.png,4,Word 20 of 20,1,Image 2 of 5,1,reveal.png,5,2
1002,testBlock,test,1,0,0,im0000056.jpg,+,1,im0000069.jpg,5,mask3.jpg,3,mask4.jpg,4,mask4.jpg,4,mask5.jpg,5,mask1.jpg,1,0,0,0,0,0,0,0,0,0,0,0,0,0,0,0,0,2
1002,testBlock,centre_mouse,2,3728,reveal,im0000056.jpg,N_1.png,1,N_2.png,2,N_3.png,3,N_4.png,4,Y_1.png,1,Y_2.png,2,Y_3.png,3,Y_4.png,4,confidence.png,1,guessing.png,2,respond_yes.png,3,respond_no.png,4,Word 0 of 20,1,Image 3 of 5,1,reveal.png,5,2
1002,testBlock,present_trial,3,1926,yes_4,im0000069.jpg,N_1.png,1,N_2.png,2,N_3.png,3,N_4.png,4,Y_1.png,1,Y_2.png,2,Y_3.png,3,Y_4.png,4,confidence.png,1,guessing.png,2,respond_yes.png,3,respond_no.png,4,Word 1 of 20,1,Image 3 of 5,1,city,5,2
1002,testBlock,centre_mouse,4,853,reveal,im0000069.jpg,N_1.png,1,N_2.png,2,N_3.png,3,N_4.png,4,Y_1.png,1,Y_2.png,2,Y_3.png,3,Y_4.png,4,confidence.png,1,guessing.png,2,respond_yes.png,3,respond_no.png,4,Word 1 of 20,1,Image 3 of 5,1,reveal.png,5,2
1002,testBlock,absent_trial,5,3946,yes_4,im0000069.jpg,N_1.png,1,N_2.png,2,N_3.png,3,N_4.png,4,Y_1.png,1,Y_2.png,2,Y_3.png,3,Y_4.png,4,confidence.png,1,guessing.png,2,respond_yes.png,3,respond_no.png,4,Word 2 of 20,1,Image 3 of 5,1,grey-and-white,8,2
1002,testBlock,centre_mouse,6,1415,reveal,im0000069.jpg,N_1.png,1,N_2.png,2,N_3.png,3,N_4.png,4,Y_1.png,1,Y_2.png,2,Y_3.png,3,Y_4.png,4,confidence.png,1,guessing.png,2,respond_yes.png,3,respond_no.png,4,Word 2 of 20,1,Image 3 of 5,1,reveal.png,5,2
1002,testBlock,present_trial,7,3035,yes_2,im0000069.jpg,N_1.png,1,N_2.png,2,N_3.png,3,N_4.png,4,Y_1.png,1,Y_2.png,2,Y_3.png,3,Y_4.png,4,confidence.png,1,guessing.png,2,respond_yes.png,3,respond_no.png,4,Word 3 of 20,1,Image 3 of 5,1,man,8,2
1002,testBlock,centre_mouse,8,929,reveal,im0000069.jpg,N_1.png,1,N_2.png,2,N_3.png,3,N_4.png,4,Y_1.png,1,Y_2.png,2,Y_3.png,3,Y_4.png,4,confidence.png,1,guessing.png,2,respond_yes.png,3,respond_no.png,4,Word 3 of 20,1,Image 3 of 5,1,reveal.png,5,2
1002,testBlock,present_trial,9,1230,yes_4,im0000069.jpg,N_1.png,1,N_2.png,2,N_3.png,3,N_4.png,4,Y_1.png,1,Y_2.png,2,Y_3.png,3,Y_4.png,4,confidence.png,1,guessing.png,2,respond_yes.png,3,respond_no.png,4,Word 4 of 20,1,Image 3 of 5,1,couple,4,2
1002,testBlock,centre_mouse,10,942,reveal,im0000069.jpg,N_1.png,1,N_2.png,2,N_3.png,3,N_4.png,4,Y_1.png,1,Y_2.png,2,Y_3.png,3,Y_4.png,4,confidence.png,1,guessing.png,2,respond_yes.png,3,respond_no.png,4,Word 4 of 20,1,Image 3 of 5,1,reveal.png,5,2
1002,testBlock,absent_trial,11,1927,yes_4,im0000069.jpg,N_1.png,1,N_2.png,2,N_3.png,3,N_4.png,4,Y_1.png,1,Y_2.png,2,Y_3.png,3,Y_4.png,4,confidence.png,1,guessing.png,2,respond_yes.png,3,respond_no.png,4,Word 5 of 20,1,Image 3 of 5,1,windy,19,2
1002,testBlock,centre_mouse,12,1247,reveal,im0000069.jpg,N_1.png,1,N_2.png,2,N_3.png,3,N_4.png,4,Y_1.png,1,Y_2.png,2,Y_3.png,3,Y_4.png,4,confidence.png,1,guessing.png,2,respond_yes.png,3,respond_no.png,4,Word 5 of 20,1,Image 3 of 5,1,reveal.png,5,2
1002,testBlock,present_trial,13,1181,yes_4,im0000069.jpg,N_1.png,1,N_2.png,2,N_3.png,3,N_4.png,4,Y_1.png,1,Y_2.png,2,Y_3.png,3,Y_4.png,4,confidence.png,1,guessing.png,2,respond_yes.png,3,respond_no.png,4,Word 6 of 20,1,Image 3 of 5,1,love,1,2
1002,testBlock,centre_mouse,14,742,reveal,im0000069.jpg,N_1.png,1,N_2.png,2,N_3.png,3,N_4.png,4,Y_1.png,1,Y_2.png,2,Y_3.png,3,Y_4.png,4,confidence.png,1,guessing.png,2,respond_yes.png,3,respond_no.png,4,Word 6 of 20,1,Image 3 of 5,1,reveal.png,5,2
1002,testBlock,absent_trial,15,1397,no_4,im0000069.jpg,N_1.png,1,N_2.png,2,N_3.png,3,N_4.png,4,Y_1.png,1,Y_2.png,2,Y_3.png,3,Y_4.png,4,confidence.png,1,guessing.png,2,respond_yes.png,3,respond_no.png,4,Word 7 of 20,1,Image 3 of 5,1,forest,20,2
1002,testBlock,centre_mouse,16,583,reveal,im0000069.jpg,N_1.png,1,N_2.png,2,N_3.png,3,N_4.png,4,Y_1.png,1,Y_2.png,2,Y_3.png,3,Y_4.png,4,confidence.png,1,guessing.png,2,respond_yes.png,3,respond_no.png,4,Word 7 of 20,1,Image 3 of 5,1,reveal.png,5,2
1002,testBlock,absent_trial,17,1325,yes_4,im0000069.jpg,N_1.png,1,N_2.png,2,N_3.png,3,N_4.png,4,Y_1.png,1,Y_2.png,2,Y_3.png,3,Y_4.png,4,confidence.png,1,guessing.png,2,respond_yes.png,3,respond_no.png,4,Word 8 of 20,1,Image 3 of 5,1,happy,11,2
1002,testBlock,centre_mouse,18,1169,reveal,im0000069.jpg,N_1.png,1,N_2.png,2,N_3.png,3,N_4.png,4,Y_1.png,1,Y_2.png,2,Y_3.png,3,Y_4.png,4,confidence.png,1,guessing.png,2,respond_yes.png,3,respond_no.png,4,Word 8 of 20,1,Image 3 of 5,1,reveal.png,5,2
1002,testBlock,catch_present_trial,19,1879,yes_1,im0000069.jpg,N_1.png,1,N_2.png,2,N_3.png,3,N_4.png,4,Y_1.png,1,Y_2.png,2,Y_3.png,3,Y_4.png,4,confidence.png,1,guessing.png,2,respond_yes.png,3,respond_no.png,4,Word 8 of 20,1,Image 3 of 5,1,PRESS: Yes 1,1,2
1002,testBlock,centre_mouse,20,826,reveal,im0000069.jpg,N_1.png,1,N_2.png,2,N_3.png,3,N_4.png,4,Y_1.png,1,Y_2.png,2,Y_3.png,3,Y_4.png,4,confidence.png,1,guessing.png,2,respond_yes.png,3,respond_no.png,4,Word 8 of 20,1,Image 3 of 5,1,reveal.png,5,2
1002,testBlock,absent_trial,21,1412,yes_4,im0000069.jpg,N_1.png,1,N_2.png,2,N_3.png,3,N_4.png,4,Y_1.png,1,Y_2.png,2,Y_3.png,3,Y_4.png,4,confidence.png,1,guessing.png,2,respond_yes.png,3,respond_no.png,4,Word 9 of 20,1,Image 3 of 5,1,city,9,2
1002,testBlock,centre_mouse,22,746,reveal,im0000069.jpg,N_1.png,1,N_2.png,2,N_3.png,3,N_4.png,4,Y_1.png,1,Y_2.png,2,Y_3.png,3,Y_4.png,4,confidence.png,1,guessing.png,2,respond_yes.png,3,respond_no.png,4,Word 9 of 20,1,Image 3 of 5,1,reveal.png,5,2
1002,testBlock,present_trial,23,3002,no_1,im0000069.jpg,N_1.png,1,N_2.png,2,N_3.png,3,N_4.png,4,Y_1.png,1,Y_2.png,2,Y_3.png,3,Y_4.png,4,confidence.png,1,guessing.png,2,respond_yes.png,3,respond_no.png,4,Word 10 of 20,1,Image 3 of 5,1,statue,2,2
1002,testBlock,centre_mouse,24,863,reveal,im0000069.jpg,N_1.png,1,N_2.png,2,N_3.png,3,N_4.png,4,Y_1.png,1,Y_2.png,2,Y_3.png,3,Y_4.png,4,confidence.png,1,guessing.png,2,respond_yes.png,3,respond_no.png,4,Word 10 of 20,1,Image 3 of 5,1,reveal.png,5,2
1002,testBlock,present_trial,25,2328,yes_2,im0000069.jpg,N_1.png,1,N_2.png,2,N_3.png,3,N_4.png,4,Y_1.png,1,Y_2.png,2,Y_3.png,3,Y_4.png,4,confidence.png,1,guessing.png,2,respond_yes.png,3,respond_no.png,4,Word 11 of 20,1,Image 3 of 5,1,walk,7,2
1002,testBlock,centre_mouse,26,764,reveal,im0000069.jpg,N_1.png,1,N_2.png,2,N_3.png,3,N_4.png,4,Y_1.png,1,Y_2.png,2,Y_3.png,3,Y_4.png,4,confidence.png,1,guessing.png,2,respond_yes.png,3,respond_no.png,4,Word 11 of 20,1,Image 3 of 5,1,reveal.png,5,2
1002,testBlock,present_trial,27,2457,yes_3,im0000069.jpg,N_1.png,1,N_2.png,2,N_3.png,3,N_4.png,4,Y_1.png,1,Y_2.png,2,Y_3.png,3,Y_4.png,4,confidence.png,1,guessing.png,2,respond_yes.png,3,respond_no.png,4,Word 12 of 20,1,Image 3 of 5,1,chicago,10,2
1002,testBlock,centre_mouse,28,985,reveal,im0000069.jpg,N_1.png,1,N_2.png,2,N_3.png,3,N_4.png,4,Y_1.png,1,Y_2.png,2,Y_3.png,3,Y_4.png,4,confidence.png,1,guessing.png,2,respond_yes.png,3,respond_no.png,4,Word 12 of 20,1,Image 3 of 5,1,reveal.png,5,2
1002,testBlock,absent_trial,29,2895,no_2,im0000069.jpg,N_1.png,1,N_2.png,2,N_3.png,3,N_4.png,4,Y_1.png,1,Y_2.png,2,Y_3.png,3,Y_4.png,4,confidence.png,1,guessing.png,2,respond_yes.png,3,respond_no.png,4,Word 13 of 20,1,Image 3 of 5,1,black-children,4,2
1002,testBlock,centre_mouse,30,703,reveal,im0000069.jpg,N_1.png,1,N_2.png,2,N_3.png,3,N_4.png,4,Y_1.png,1,Y_2.png,2,Y_3.png,3,Y_4.png,4,confidence.png,1,guessing.png,2,respond_yes.png,3,respond_no.png,4,Word 13 of 20,1,Image 3 of 5,1,reveal.png,5,2
1002,testBlock,absent_trial,31,2034,yes_2,im0000069.jpg,N_1.png,1,N_2.png,2,N_3.png,3,N_4.png,4,Y_1.png,1,Y_2.png,2,Y_3.png,3,Y_4.png,4,confidence.png,1,guessing.png,2,respond_yes.png,3,respond_no.png,4,Word 14 of 20,1,Image 3 of 5,1,green,7,2
1002,testBlock,centre_mouse,32,652,reveal,im0000069.jpg,N_1.png,1,N_2.png,2,N_3.png,3,N_4.png,4,Y_1.png,1,Y_2.png,2,Y_3.png,3,Y_4.png,4,confidence.png,1,guessing.png,2,respond_yes.png,3,respond_no.png,4,Word 14 of 20,1,Image 3 of 5,1,reveal.png,5,2
1002,testBlock,present_trial,33,1827,yes_2,im0000069.jpg,N_1.png,1,N_2.png,2,N_3.png,3,N_4.png,4,Y_1.png,1,Y_2.png,2,Y_3.png,3,Y_4.png,4,confidence.png,1,guessing.png,2,respond_yes.png,3,respond_no.png,4,Word 15 of 20,1,Image 3 of 5,1,art,9,2
1002,testBlock,centre_mouse,34,546,reveal,im0000069.jpg,N_1.png,1,N_2.png,2,N_3.png,3,N_4.png,4,Y_1.png,1,Y_2.png,2,Y_3.png,3,Y_4.png,4,confidence.png,1,guessing.png,2,respond_yes.png,3,respond_no.png,4,Word 15 of 20,1,Image 3 of 5,1,reveal.png,5,2
1002,testBlock,absent_trial,35,1287,yes_1,im0000069.jpg,N_1.png,1,N_2.png,2,N_3.png,3,N_4.png,4,Y_1.png,1,Y_2.png,2,Y_3.png,3,Y_4.png,4,confidence.png,1,guessing.png,2,respond_yes.png,3,respond_no.png,4,Word 16 of 20,1,Image 3 of 5,1,bud,15,2
