subject,blockcode,trialcode,trialnum,latency,response,values.imageName,stimulusitem1,stimulusnumber1,stimulusitem2,stimulusnumber2,stimulusitem3,stimulusnumber3,stimulusitem4,stimulusnumber4,stimulusitem5,stimulusnumber5,stimulusitem6,stimulusnumber6,stimulusitem7,stimulusnumber7,stimulusitem8,stimulusnumber8,stimulusitem9,stimulusnumber9,stimulusitem10,stimulusnumber10,stimulusitem11,stimulusnumber11,stimulusitem12,stimulusnumber12,stimulusitem13,stimulusnumber13,stimulusitem14,stimulusnumber14,stimulusitem15,stimulusnumber15
1,practiceBlock,practice,1,1,0,Picture1.jpg,+,1,Picture2.jpg,2,mask2.jpg,2,mask5.jpg,5,mask3.jpg,3,mask1.jpg,1,mask3.jpg,3,0,0,0,0,0,0,0,0,0,0,0,0,0,0,0,0
1,practiceBlock,centre_mouse,2,49,reveal,Picture1.jpg,N_1.png,1,N_2.png,2,N_3.png,3,N_4.png,4,Y_1.png,1,Y_2.png,2,Y_3.png,3,Y_4.png,4,confidence.png,1,guessing.png,2,respond_yes.png,3,respond_no.png,4,Word 0 of 12,1,Image 1 of 3,1,reveal.png,5
1,practiceBlock,practice_present_trial,3,49,yes_2,Picture2.jpg,N_1.png,1,N_2.png,2,N_3.png,3,N_4.png,4,Y_1.png,1,Y_2.png,2,Y_3.png,3,Y_4.png,4,confidence.png,1,guessing.png,2,respond_yes.png,3,respond_no.png,4,Word 1 of 12,1,Image 1 of 3,1,emoji,6
1,practiceBlock,centre_mouse,4,38,reveal,Picture2.jpg,N_1.png,1,N_2.png,2,N_3.png,3,N_4.png,4,Y_1.png,1,Y_2.png,2,Y_3.png,3,Y_4.png,4,confidence.png,1,guessing.png,2,respond_yes.png,3,respond_no.png,4,Word 1 of 12,1,Image 1 of 3,1,reveal.png,5
1,practiceBlock,practice_present_trial,5,55,yes_3,Picture2.jpg,N_1.png,1,N_2.png,2,N_3.png,3,N_4.png,4,Y_1.png,1,Y_2.png,2,Y_3.png,3,Y_4.png,4,confidence.png,1,guessing.png,2,respond_yes.png,3,respond_no.png,4,Word 2 of 12,1,Image 1 of 3,1,eyes,3
1,practiceBlock,centre_mouse,6,42,reveal,Picture2.jpg,N_1.png,1,N_2.png,2,N_3.png,3,N_4.png,4,Y_1.png,1,Y_2.png,2,Y_3.png,3,Y_4.png,4,confidence.png,1,guessing.png,2,respond_yes.png,3,respond_no.png,4,Word 2 of 12,1,Image 1 of 3,1,reveal.png,5
1,practiceBlock,practice_absent_trial,7,38,yes_2,Picture2.jpg,N_1.png,1,N_2.png,2,N_3.png,3,N_4.png,4,Y_1.png,1,Y_2.png,2,Y_3.png,3,Y_4.png,4,confidence.png,1,guessing.png,2,respond_yes.png,3,respond_no.png,4,Word 3 of 12,1,Image 1 of 3,1,walk,1
1,practiceBlock,centre_mouse,8,55,reveal,Picture2.jpg,N_1.png,1,N_2.png,2,N_3.png,3,N_4.png,4,Y_1.png,1,Y_2.png,2,Y_3.png,3,Y_4.png,4,confidence.png,1,guessing.png,2,respond_yes.png,3,respond_no.png,4,Word 3 of 12,1,Image 1 of 3,1,reveal.png,5
1,practiceBlock,practice_absent_trial,9,51,no_3,Picture2.jpg,N_1.png,1,N_2.png,2,N_3.png,3,N_4.png,4,Y_1.png,1,Y_2.png,2,Y_3.png,3,Y_4.png,4,confidence.png,1,guessing.png,2,respond_yes.png,3,respond_no.png,4,Word 4 of 12,1,Image 1 of 3,1,anxious,5
1,practiceBlock,centre_mouse,10,50,reveal,Picture2.jpg,N_1.png,1,N_2.png,2,N_3.png,3,N_4.png,4,Y_1.png,1,Y_2.png,2,Y_3.png,3,Y_4.png,4,confidence.png,1,guessing.png,2,respond_yes.png,3,respond_no.png,4,Word 4 of 12,1,Image 1 of 3,1,reveal.png,5
1,practiceBlock,practice_present_trial,11,31,no_3,Picture2.jpg,N_1.png,1,N_2.png,2,N_3.png,3,N_4.png,4,Y_1.png,1,Y_2.png,2,Y_3.png,3,Y_4.png,4,confidence.png,1,guessing.png,2,respond_yes.png,3,respond_no.png,4,Word 5 of 12,1,Image 1 of 3,1,face,1
1,practiceBlock,centre_mouse,12,41,reveal,Picture2.jpg,N_1.png,1,N_2.png,2,N_3.png,3,N_4.png,4,Y_1.png,1,Y_2.png,2,Y_3.png,3,Y_4.png,4,confidence.png,1,guessing.png,2,respond_yes.png,3,respond_no.png,4,Word 5 of 12,1,Image 1 of 3,1,reveal.png,5
1,practiceBlock,practice_present_trial,13,34,no_4,Picture2.jpg,N_1.png,1,N_2.png,2,N_3.png,3,N_4.png,4,Y_1.png,1,Y_2.png,2,Y_3.png,3,Y_4.png,4,confidence.png,1,guessing.png,2,respond_yes.png,3,respond_no.png,4,Word 6 of 12,1,Image 1 of 3,1,smile,4
1,practiceBlock,centre_mouse,14,47,reveal,Picture2.jpg,N_1.png,1,N_2.png,2,N_3.png,3,N_4.png,4,Y_1.png,1,Y_2.png,2,Y_3.png,3,Y_4.png,4,confidence.png,1,guessing.png,2,respond_yes.png,3,respond_no.png,4,Word 6 of 12,1,Image 1 of 3,1,reveal.png,5
1,practiceBlock,practice_absent_trial,15,51,no_3,Picture2.jpg,N_1.png,1,N_2.png,2,N_3.png,3,N_4.png,4,Y_1.png,1,Y_2.png,2,Y_3.png,3,Y_4.png,4,confidence.png,1,guessing.png,2,respond_yes.png,3,respond_no.png,4,Word 7 of 12,1,Image 1 of 3,1,beauty,2
1,practiceBlock,centre_mouse,16,28,reveal,Picture2.jpg,N_1.png,1,N_2.png,2,N_3.png,3,N_4.png,4,Y_1.png,1,Y_2.png,2,Y_3.png,3,Y_4.png,4,confidence.png,1,guessing.png,2,respond_yes.png,3,respond_no.png,4,Word 7 of 12,1,Image 1 of 3,1,reveal.png,5
1,practiceBlock,practice_present_trial,17,41,yes_2,Picture2.jpg,N_1.png,1,N_2.png,2,N_3.png,3,N_4.png,4,Y_1.png,1,Y_2.png,2,Y_3.png,3,Y_4.png,4,confidence.png,1,guessing.png,2,respond_yes.png,3,respond_no.png,4,Word 8 of 12,1,Image 1 of 3,1,happy,5
1,practiceBlock,centre_mouse,18,31,reveal,Picture2.jpg,N_1.png,1,N_2.png,2,N_3.png,3,N_4.png,4,Y_1.png,1,Y_2.png,2,Y_3.png,3,Y_4.png,4,confidence.png,1,guessing.png,2,respond_yes.png,3,respond_no.png,4,Word 8 of 12,1,Image 1 of 3,1,reveal.png,5
1,practiceBlock,practice_absent_trial,19,34,no_3,Picture2.jpg,N_1.png,1,N_2.png,2,N_3.png,3,N_4.png,4,Y_1.png,1,Y_2.png,2,Y_3.png,3,Y_4.png,4,confidence.png,1,guessing.png,2,respond_yes.png,3,respond_no.png,4,Word 9 of 12,1,Image 1 of 3,1,grey-clothes,4
1,practiceBlock,centre_mouse,20,47,reveal,Picture2.jpg,N_1.png,1,N_2.png,2,N_3.png,3,N_4.png,4,Y_1.png,1,Y_2.png,2,Y_3.png,3,Y_4.png,4,confidence.png,1,guessing.png,2,respond_yes.png,3,respond_no.png,4,Word 9 of 12,1,Image 1 of 3,1,reveal.png,5
1,practiceBlock,practice_present_trial,21,52,no_3,Picture2.jpg,N_1.png,1,N_2.png,2,N_3.png,3,N_4.png,4,Y_1.png,1,Y_2.png,2,Y_3.png,3,Y_4.png,4,confidence.png,1,guessing.png,2,respond_yes.png,3,respond_no.png,4,Word 10 of 12,1,Image 1 of 3,1,yellow,2
1,practiceBlock,centre_mouse,22,47,reveal,Picture2.jpg,N_1.png,1,N_2.png,2,N_3.png,3,N_4.png,4,Y_1.png,1,Y_2.png,2,Y_3.png,3,Y_4.png,4,confidence.png,1,guessing.png,2,respond_yes.png,3,respond_no.png,4,Word 10 of 12,1,Image 1 of 3,1,reveal.png,5
1,practiceBlock,practice_absent_trial,23,47,yes_4,Picture2.jpg,N_1.png,1,N_2.png,2,N_3.png,3,N_4.png,4,Y_1.png,1,Y_2.png,2,Y_3.png,3,Y_4.png,4,confidence.png,1,guessing.png,2,respond_yes.png,3,respond_no.png,4,Word 11 of 12,1,Image 1 of 3,1,metal,3
1,practiceBlock,centre_mouse,24,41,reveal,Picture2.jpg,N_1.png,1,N_2.png,2,N_3.png,3,N_4.png,4,Y_1.png,1,Y_2.png,2,Y_3.png,3,Y_4.png,4,confidence.png,1,guessing.png,2,respond_yes.png,3,respond_no.png,4,Word 11 of 12,1,Image 1 of 3,1,reveal.png,5
1,practiceBlock,practice_absent_trial,25,37,no_3,Picture2.jpg,N_1.png,1,N_2.png,2,N_3.png,3,N_4.png,4,Y_1.png,1,Y_2.png,2,Y_3.png,3,Y_4.png,4,confidence.png,1,guessing.png,2,respond_yes.png,3,respond_no.png,4,Word 12 of 12,1,Image 1 of 3,1,man,6
1,practiceBlock,centre_mouse,26,35,reveal,Picture2.jpg,N_1.png,1,N_2.png,2,N_3.png,3,N_4.png,4,Y_1.png,1,Y_2.png,2,Y_3.png,3,Y_4.png,4,confidence.png,1,guessing.png,2,respond_yes.png,3,respond_no.png,4,Word 12 of 12,1,Image 1 of 3,1,reveal.png,5
1,practiceBlock,catch_absent_trial,27,34,no_4,Picture2.jpg,N_1.png,1,N_2.png,2,N_3.png,3,N_4.png,4,Y_1.png,1,Y_2.png,2,Y_3.png,3,Y_4.png,4,confidence.png,1,guessing.png,2,respond_yes.png,3,respond_no.png,4,Word 12 of 12,1,Image 1 of 3,1,PRESS: No 4,4
1,practiceBlock,centre_mouse,28,51,reveal,Picture2.jpg,N_1.png,1,N_2.png,2,N_3.png,3,N_4.png,4,Y_1.png,1,Y_2.png,2,Y_3.png,3,Y_4.png,4,confidence.png,1,guessing.png,2,respond_yes.png,3,respond_no.png,4,Word 12 of 12,1,Image 1 of 3,1,reveal.png,5
1,practiceBlock,catch_present_trial,29,34,yes_2,Picture2.jpg,N_1.png,1,N_2.png,2,N_3.png,3,N_4.png,4,Y_1.png,1,Y_2.png,2,Y_3.png,3,Y_4.png,4,confidence.png,1,guessing.png,2,respond_yes.png,3,respond_no.png,4,Word 12 of 12,1,Image 1 of 3,1,PRESS: Yes 2,2
1,practiceBlock,centre_mouse,30,24,reveal,Picture2.jpg,N_1.png,1,N_2.png,2,N_3.png,3,N_4.png,4,Y_1.png,1,Y_2.png,2,Y_3.png,3,Y_4.png,4,confidence.png,1,guessing.png,2,respond_yes.png,3,respond_no.png,4,Word 12 of 12,1,Image 1 of 3,1,reveal.png,5
1,practiceBlock,practice,1,1,0,Picture2.jpg,+,1,Picture3.jpg,3,mask4.jpg,4,mask2.jpg,2,mask1.jpg,1,mask2.jpg,2,mask1.jpg,1,0,0,0,0,0,0,0,0,0,0,0,0,0,0,0,0
1,practiceBlock,centre_mouse,2,22,reveal,Picture2.jpg,N_1.png,1,N_2.png,2,N_3.png,3,N_4.png,4,Y_1.png,1,Y_2.png,2,Y_3.png,3,Y_4.png,4,confidence.png,1,guessing.png,2,respond_yes.png,3,respond_no.png,4,Word 0 of 12,1,Image 2 of 3,1,reveal.png,5
1,practiceBlock,practice_present_trial,3,37,no_3,Picture3.jpg,N_1.png,1,N_2.png,2,N_3.png,3,N_4.png,4,Y_1.png,1,Y_2.png,2,Y_3.png,3,Y_4.png,4,confidence.png,1,guessing.png,2,respond_yes.png,3,respond_no.png,4,Word 1 of 12,1,Image 2 of 3,1,sun,2
1,practiceBlock,centre_mouse,4,24,reveal,Picture3.jpg,N_1.png,1,N_2.png,2,N_3.png,3,N_4.png,4,Y_1.png,1,Y_2.png,2,Y_3.png,3,Y_4.png,4,confidence.png,1,guessing.png,2,respond_yes.png,3,respond_no.png,4,Word 1 of 12,1,Image 2 of 3,1,reveal.png,5
1,practiceBlock,practice_present_trial,5,46,no_4,Picture3.jpg,N_1.png,1,N_2.png,2,N_3.png,3,N_4.png,4,Y_1.png,1,Y_2.png,2,Y_3.png,3,Y_4.png,4,confidence.png,1,guessing.png,2,respond_yes.png,3,respond_no.png,4,Word 2 of 12,1,Image 2 of 3,1,sky,6
1,practiceBlock,centre_mouse,6,46,reveal,Picture3.jpg,N_1.png,1,N_2.png,2,N_3.png,3,N_4.png,4,Y_1.png,1,Y_2.png,2,Y_3.png,3,Y_4.png,4,confidence.png,1,guessing.png,2,respond_yes.png,3,respond_no.png,4,Word 2 of 12,1,Image 2 of 3,1,reveal.png,5
1,practiceBlock,practice_present_trial,7,22,no_4,Picture3.jpg,N_1.png,1,N_2.png,2,N_3.png,3,N_4.png,4,Y_1.png,1,Y_2.png,2,Y_3.png,3,Y_4.png,4,confidence.png,1,guessing.png,2,respond_yes.png,3,respond_no.png,4,Word 3 of 12,1,Image 2 of 3,1,mountain,1
1,practiceBlock,centre_mouse,8,37,reveal,Picture3.jpg,N_1.png,1,N_2.png,2,N_3.png,3,N_4.png,4,Y_1.png,1,Y_2.png,2,Y_3.png,3,Y_4.png,4,confidence.png,1,guessing.png,2,respond_yes.png,3,respond_no.png,4,Word 3 of 12,1,Image 2 of 3,1,reveal.png,5
1,practiceBlock,practice_present_trial,9,39,no_4,Picture3.jpg,N_1.png,1,N_2.png,2,N_3.png,3,N_4.png,4,Y_1.png,1,Y_2.png,2,Y_3.png,3,Y_4.png,4,confidence.png,1,guessing.png,2,respond_yes.png,3,respond_no.png,4,Word 4 of 12,1,Image 2 of 3,1,blue,5
1,practiceBlock,centre_mouse,10,46,reveal,Picture3.jpg,N_1.png,1,N_2.png,2,N_3.png,3,N_4.png,4,Y_1.png,1,Y_2.png,2,Y_3.png,3,Y_4.png,4,confidence.png,1,guessing.png,2,respond_yes.png,3,respond_no.png,4,Word 4 of 12,1,Image 2 of 3,1,reveal.png,5
1,practiceBlock,practice_absent_trial,11,25,no_4,Picture3.jpg,N_1.png,1,N_2.png,2,N_3.png,3,N_4.png,4,Y_1.png,1,Y_2.png,2,Y_3.png,3,Y_4.png,4,confidence.png,1,guessing.png,2,respond_yes.png,3,respond_no.png,4,Word 5 of 12,1,Image 2 of 3,1,horse,2
1,practiceBlock,centre_mouse,12,48,reveal,Picture3.jpg,N_1.png,1,N_2.png,2,N_3.png,3,N_4.png,4,Y_1.png,1,Y_2.png,2,Y_3.png,3,Y_4.png,4,confidence.png,1,guessing.png,2,respond_yes.png,3,respond_no.png,4,Word 5 of 12,1,Image 2 of 3,1,reveal.png,5
1,practiceBlock,practice_present_trial,13,45,no_3,Picture3.jpg,N_1.png,1,N_2.png,2,N_3.png,3,N_4.png,4,Y_1.png,1,Y_2.png,2,Y_3.png,3,Y_4.png,4,confidence.png,1,guessing.png,2,respond_yes.png,3,respond_no.png,4,Word 6 of 12,1,Image 2 of 3,1,cloud,3
1,practiceBlock,centre_mouse,14,38,reveal,Picture3.jpg,N_1.png,1,N_2.png,2,N_3.png,3,N_4.png,4,Y_1.png,1,Y_2.png,2,Y_3.png,3,Y_4.png,4,confidence.png,1,guessing.png,2,respond_yes.png,3,respond_no.png,4,Word 6 of 12,1,Image 2 of 3,1,reveal.png,5
1,practiceBlock,practice_absent_trial,15,50,no_2,Picture3.jpg,N_1.png,1,N_2.png,2,N_3.png,3,N_4.png,4,Y_1.png,1,Y_2.png,2,Y_3.png,3,Y_4.png,4,confidence.png,1,guessing.png,2,respond_yes.png,3,respond_no.png,4,Word 7 of 12,1,Image 2 of 3,1,coat,3
1,practiceBlock,centre_mouse,16,47,reveal,Picture3.jpg,N_1.png,1,N_2.png,2,N_3.png,3,N_4.png,4,Y_1.png,1,Y_2.png,2,Y_3.png,3,Y_4.png,4,confidence.png,1,guessing.png,2,respond_yes.png,3,respond_no.png,4,Word 7 of 12,1,Image 2 of 3,1,reveal.png,5
1,practiceBlock,practice_present_trial,17,38,yes_2,Picture3.jpg,N_1.png,1,N_2.png,2,N_3.png,3,N_4.png,4,Y_1.png,1,Y_2.png,2,Y_3.png,3,Y_4.png,4,confidence.png,1,guessing.png,2,respond_yes.png,3,respond_no.png,4,Word 8 of 12,1,Image 2 of 3,1,landscape,4
1,practiceBlock,centre_mouse,18,42,reveal,Picture3.jpg,N_1.png,1,N_2.png,2,N_3.png,3,N_4.png,4,Y_1.png,1,Y_2.png,2,Y_3.png,3,Y_4.png,4,confidence.png,1,guessing.png,2,respond_yes.png,3,respond_no.png,4,Word 8 of 12,1,Image 2 of 3,1,reveal.png,5
1,practiceBlock,practice_absent_trial,19,23,no_3,Picture3.jpg,N_1.png,1,N_2.png,2,N_3.png,3,N_4.png,4,Y_1.png,1,Y_2.png,2,Y_3.png,3,Y_4.png,4,confidence.png,1,guessing.png,2,respond_yes.png,3,respond_no.png,4,Word 9 of 12,1,Image 2 of 3,1,old,4
1,practiceBlock,centre_mouse,20,51,reveal,Picture3.jpg,N_1.png,1,N_2.png,2,N_3.png,3,N_4.png,4,Y_1.png,1,Y_2.png,2,Y_3.png,3,Y_4.png,4,confidence.png,1,guessing.png,2,respond_yes.png,3,respond_no.png,4,Word 9 of 12,1,Image 2 of 3,1,reveal.png,5
1,practiceBlock,practice_absent_trial,21,43,no_4,Picture3.jpg,N_1.png,1,N_2.png,2,N_3.png,3,N_4.png,4,Y_1.png,1,Y_2.png,2,Y_3.png,3,Y_4.png,4,confidence.png,1,guessing.png,2,respond_yes.png,3,respond_no.png,4,Word 10 of 12,1,Image 2 of 3,1,stand,5
1,practiceBlock,centre_mouse,22,56,reveal,Picture3.jpg,N_1.png,1,N_2.png,2,N_3.png,3,N_4.png,4,Y_1.png,1,Y_2.png,2,Y_3.png,3,Y_4.png,4,confidence.png,1,guessing.png,2,respond_yes.png,3,respond_no.png,4,Word 10 of 12,1,Image 2 of 3,1,reveal.png,5
1,practiceBlock,practice_absent_trial,23,28,yes_3,Picture3.jpg,N_1.png,1,N_2.png,2,N_3.png,3,N_4.png,4,Y_1.png,1,Y_2.png,2,Y_3.png,3,Y_4.png,4,confidence.png,1,guessing.png,2,respond_yes.png,3,respond_no.png,4,Word 11 of 12,1,Image 2 of 3,1,zoomed-in,1
1,practiceBlock,centre_mouse,24,58,reveal,Picture3.jpg,N_1.png,1,N_2.png,2,N_3.png,3,N_4.png,4,Y_1.png,1,Y_2.png,2,Y_3.png,3,Y_4.png,4,confidence.png,1,guessing.png,2,respond_yes.png,3,respond_no.png,4,Word 11 of 12,1,Image 2 of 3,1,reveal.png,5
1,practiceBlock,practice_absent_trial,25,42,no_3,Picture3.jpg,N_1.png,1,N_2.png,2,N_3.png,3,N_4.png,4,Y_1.png,1,Y_2.png,2,Y_3.png,3,Y_4.png,4,confidence.png,1,guessing.png,2,respond_yes.png,3,respond_no.png,4,Word 12 of 12,1,Image 2 of 3,1,blue-hat,6
1,practiceBlock,centre_mouse,26,66,reveal,Picture3.jpg,N_1.png,1,N_2.png,2,N_3.png,3,N_4.png,4,Y_1.png,1,Y_2.png,2,Y_3.png,3,Y_4.png,4,confidence.png,1,guessing.png,2,respond_yes.png,3,respond_no.png,4,Word 12 of 12,1,Image 2 of 3,1,reveal.png,5
1,practiceBlock,catch_present_trial,27,35,yes_4,Picture3.jpg,N_1.png,1,N_2.png,2,N_3.png,3,N_4.png,4,Y_1.png,1,Y_2.png,2,Y_3.png,3,Y_4.png,4,confidence.png,1,guessing.png,2,respond_yes.png,3,respond_no.png,4,Word 12 of 12,1,Image 2 of 3,1,PRESS: Yes 3,3
1,practiceBlock,centre_mouse,28,35,reveal,Picture3.jpg,N_1.png,1,N_2.png,2,N_3.png,3,N_4.png,4,Y_1.png,1,Y_2.png,2,Y_3.png,3,Y_4.png,4,confidence.png,1,guessing.png,2,respond_yes.png,3,respond_no.png,4,Word 12 of 12,1,Image 2 of 3,1,reveal.png,5
1,practiceBlock,catch_absent_trial,29,51,no_1,Picture3.jpg,N_1.png,1,N_2.png,2,N_3.png,3,N_4.png,4,Y_1.png,1,Y_2.png,2,Y_3.png,3,Y_4.png,4,confidence.png,1,guessing.png,2,respond_yes.png,3,respond_no.png,4,Word 12 of 12,1,Image 2 of 3,1,PRESS: No 2,2
1,practiceBlock,centre_mouse,30,36,reveal,Picture3.jpg,N_1.png,1,N_2.png,2,N_3.png,3,N_4.png,4,Y_1.png,1,Y_2.png,2,Y_3.png,3,Y_4.png,4,confidence.png,1,guessing.png,2,respond_yes.png,3,respond_no.png,4,Word 12 of 12,1,Image 2 of 3,1,reveal.png,5
1,practiceBlock,practice,1,1,0,Picture3.jpg,+,1,Picture1.jpg,1,mask5.jpg,5,mask3.jpg,3,mask4.jpg,4,mask4.jpg,4,mask4.jpg,4,0,0,0,0,0,0,0,0,0,0,0,0,0,0,0,0
1,practiceBlock,centre_mouse,2,43,reveal,Picture3.jpg,N_1.png,1,N_2.png,2,N_3.png,3,N_4.png,4,Y_1.png,1,Y_2.png,2,Y_3.png,3,Y_4.png,4,confidence.png,1,guessing.png,2,respond_yes.png,3,respond_no.png,4,Word 0 of 12,1,Image 3 of 3,1,reveal.png,5
1,practiceBlock,practice_absent_trial,3,43,yes_1,Picture1.jpg,N_1.png,1,N_2.png,2,N_3.png,3,N_4.png,4,Y_1.png,1,Y_2.png,2,Y_3.png,3,Y_4.png,4,confidence.png,1,guessing.png,2,respond_yes.png,3,respond_no.png,4,Word 1 of 12,1,Image 3 of 3,1,crow,2
1,practiceBlock,centre_mouse,4,57,reveal,Picture1.jpg,N_1.png,1,N_2.png,2,N_3.png,3,N_4.png,4,Y_1.png,1,Y_2.png,2,Y_3.png,3,Y_4.png,4,confidence.png,1,guessing.png,2,respond_yes.png,3,respond_no.png,4,Word 1 of 12,1,Image 3 of 3,1,reveal.png,5
1,practiceBlock,practice_present_trial,5,56,yes_2,Picture1.jpg,N_1.png,1,N_2.png,2,N_3.png,3,N_4.png,4,Y_1.png,1,Y_2.png,2,Y_3.png,3,Y_4.png,4,confidence.png,1,guessing.png,2,respond_yes.png,3,respond_no.png,4,Word 2 of 12,1,Image 3 of 3,1,love,2
1,practiceBlock,centre_mouse,6,29,reveal,Picture1.jpg,N_1.png,1,N_2.png,2,N_3.png,3,N_4.png,4,Y_1.png,1,Y_2.png,2,Y_3.png,3,Y_4.png,4,confidence.png,1,guessing.png,2,respond_yes.png,3,respond_no.png,4,Word 2 of 12,1,Image 3 of 3,1,reveal.png,5
1,practiceBlock,practice_absent_trial,7,29,no_4,Picture1.jpg,N_1.png,1,N_2.png,2,N_3.png,3,N_4.png,4,Y_1.png,1,Y_2.png,2,Y_3.png,3,Y_4.png,4,confidence.png,1,guessing.png,2,respond_yes.png,3,respond_no.png,4,Word 3 of 12,1,Image 3 of 3,1,line,6
1,practiceBlock,centre_mouse,8,50,reveal,Picture1.jpg,N_1.png,1,N_2.png,2,N_3.png,3,N_4.png,4,Y_1.png,1,Y_2.png,2,Y_3.png,3,Y_4.png,4,confidence.png,1,guessing.png,2,respond_yes.png,3,respond_no.png,4,Word 3 of 12,1,Image 3 of 3,1,reveal.png,5
1,practiceBlock,practice_present_trial,9,19,yes_2,Picture1.jpg,N_1.png,1,N_2.png,2,N_3.png,3,N_4.png,4,Y_1.png,1,Y_2.png,2,Y_3.png,3,Y_4.png,4,confidence.png,1,guessing.png,2,respond_yes.png,3,respond_no.png,4,Word 4 of 12,1,Image 3 of 3,1,color,6
1,practiceBlock,centre_mouse,10,64,reveal,Picture1.jpg,N_1.png,1,N_2.png,2,N_3.png,3,N_4.png,4,Y_1.png,1,Y_2.png,2,Y_3.png,3,Y_4.png,4,confidence.png,1,guessing.png,2,respond_yes.png,3,respond_no.png,4,Word 4 of 12,1,Image 3 of 3,1,reveal.png,5
1,practiceBlock,practice_present_trial,11,66,yes_1,Picture1.jpg,N_1.png,1,N_2.png,2,N_3.png,3,N_4.png,4,Y_1.png,1,Y_2.png,2,Y_3.png,3,Y_4.png,4,confidence.png,1,guessing.png,2,respond_yes.png,3,respond_no.png,4,Word 5 of 12,1,Image 3 of 3,1,heart,1
1,practiceBlock,centre_mouse,12,47,reveal,Picture1.jpg,N_1.png,1,N_2.png,2,N_3.png,3,N_4.png,4,Y_1.png,1,Y_2.png,2,Y_3.png,3,Y_4.png,4,confidence.png,1,guessing.png,2,respond_yes.png,3,respond_no.png,4,Word 5 of 12,1,Image 3 of 3,1,reveal.png,5
1,practiceBlock,practice_absent_trial,13,53,no_1,Picture1.jpg,N_1.png,1,N_2.png,2,N_3.png,3,N_4.png,4,Y_1.png,1,Y_2.png,2,Y_3.png,3,Y_4.png,4,confidence.png,1,guessing.png,2,respond_yes.png,3,respond_no.png,4,Word 6 of 12,1,Image 3 of 3,1,blanket,1
1,practiceBlock,centre_mouse,14,48,reveal,Picture1.jpg,N_1.png,1,N_2.png,2,N_3.png,3,N_4.png,4,Y_1.png,1,Y_2.png,2,Y_3.png,3,Y_4.png,4,confidence.png,1,guessing.png,2,respond_yes.png,3,respond_no.png,4,Word 6 of 12,1,Image 3 of 3,1,reveal.png,5
1,practiceBlock,practice_absent_trial,15,21,no_2,Picture1.jpg,N_1.png,1,N_2.png,2,N_3.png,3,N_4.png,4,Y_1.png,1,Y_2.png,2,Y_3.png,3,Y_4.png,4,confidence.png,1,guessing.png,2,respond_yes.png,3,respond_no.png,4,Word 7 of 12,1,Image 3 of 3,1,day,4
1,practiceBlock,centre_mouse,16,37,reveal,Picture1.jpg,N_1.png,1,N_2.png,2,N_3.png,3,N_4.png,4,Y_1.png,1,Y_2.png,2,Y_3.png,3,Y_4.png,4,confidence.png,1,guessing.png,2,respond_yes.png,3,respond_no.png,4,Word 7 of 12,1,Image 3 of 3,1,reveal.png,5
1,practiceBlock,practice_absent_trial,17,12,no_4,Picture1.jpg,N_1.png,1,N_2.png,2,N_3.png,3,N_4.png,4,Y_1.png,1,Y_2.png,2,Y_3.png,3,Y_4.png,4,confidence.png,1,guessing.png,2,respond_yes.png,3,respond_no.png,4,Word 8 of 12,1,Image 3 of 3,1,dome,5
1,practiceBlock,centre_mouse,18,28,reveal,Picture1.jpg,N_1.png,1,N_2.png,2,N_3.png,3,N_4.png,4,Y_1.png,1,Y_2.png,2,Y_3.png,3,Y_4.png,4,confidence.png,1,guessing.png,2,respond_yes.png,3,respond_no.png,4,Word 8 of 12,1,Image 3 of 3,1,reveal.png,5
1,practiceBlock,practice_present_trial,19,31,yes_4,Picture1.jpg,N_1.png,1,N_2.png,2,N_3.png,3,N_4.png,4,Y_1.png,1,Y_2.png,2,Y_3.png,3,Y_4.png,4,confidence.png,1,guessing.png,2,respond_yes.png,3,respond_no.png,4,Word 9 of 12,1,Image 3 of 3,1,black,4
1,practiceBlock,centre_mouse,20,44,reveal,Picture1.jpg,N_1.png,1,N_2.png,2,N_3.png,3,N_4.png,4,Y_1.png,1,Y_2.png,2,Y_3.png,3,Y_4.png,4,confidence.png,1,guessing.png,2,respond_yes.png,3,respond_no.png,4,Word 9 of 12,1,Image 3 of 3,1,reveal.png,5
1,practiceBlock,practice_absent_trial,21,27,no_4,Picture1.jpg,N_1.png,1,N_2.png,2,N_3.png,3,N_4.png,4,Y_1.png,1,Y_2.png,2,Y_3.png,3,Y_4.png,4,confidence.png,1,guessing.png,2,respond_yes.png,3,respond_no.png,4,Word 10 of 12,1,Image 3 of 3,1,wall,3
1,practiceBlock,centre_mouse,22,61,reveal,Picture1.jpg,N_1.png,1,N_2.png,2,N_3.png,3,N_4.png,4,Y_1.png,1,Y_2.png,2,Y_3.png,3,Y_4.png,4,confidence.png,1,guessing.png,2,respond_yes.png,3,respond_no.png,4,Word 10 of 12,1,Image 3 of 3,1,reveal.png,5
1,practiceBlock,practice_present_trial,23,38,yes_3,Picture1.jpg,N_1.png,1,N_2.png,2,N_3.png,3,N_4.png,4,Y_1.png,1,Y_2.png,2,Y_3.png,3,Y_4.png,4,confidence.png,1,guessing.png,2,respond_yes.png,3,respond_no.png,4,Word 11 of 12,1,Image 3 of 3,1,outline,5
1,practiceBlock,centre_mouse,24,43,reveal,Picture1.jpg,N_1.png,1,N_2.png,2,N_3.png,3,N_4.png,4,Y_1.png,1,Y_2.png,2,Y_3.png,3,Y_4.png,4,confidence.png,1,guessing.png,2,respond_yes.png,3,respond_no.png,4,Word 11 of 12,1,Image 3 of 3,1,reveal.png,5
1,practiceBlock,practice_present_trial,25,45,no_1,Picture1.jpg,N_1.png,1,N_2.png,2,N_3.png,3,N_4.png,4,Y_1.png,1,Y_2.png,2,Y_3.png,3,Y_4.png,4,confidence.png,1,guessing.png,2,respond_yes.png,3,respond_no.png,4,Word 12 of 12,1,Image 3 of 3,1,red,3
1,practiceBlock,centre_mouse,26,53,reveal,Picture1.jpg,N_1.png,1,N_2.png,2,N_3.png,3,N_4.png,4,Y_1.png,1,Y_2.png,2,Y_3.png,3,Y_4.png,4,confidence.png,1,guessing.png,2,respond_yes.png,3,respond_no.png,4,Word 12 of 12,1,Image 3 of 3,1,reveal.png,5
1,practiceBlock,catch_absent_trial,27,22,no_3,Picture1.jpg,N_1.png,1,N_2.png,2,N_3.png,3,N_4.png,4,Y_1.png,1,Y_2.png,2,Y_3.png,3,Y_4.png,4,confidence.png,1,guessing.png,2,respond_yes.png,3,respond_no.png,4,Word 12 of 12,1,Image 3 of 3,1,PRESS: No 3,3
1,practiceBlock,centre_mouse,28,58,reveal,Picture1.jpg,N_1.png,1,N_2.png,2,N_3.png,3,N_4.png,4,Y_1.png,1,Y_2.png,2,Y_3.png,3,Y_4.png,4,confidence.png,1,guessing.png,2,respond_yes.png,3,respond_no.png,4,Word 12 of 12,1,Image 3 of 3,1,reveal.png,5
1,practiceBlock,catch_present_trial,29,36,yes_2,Picture1.jpg,N_1.png,1,N_2.png,2,N_3.png,3,N_4.png,4,Y_1.png,1,Y_2.png,2,Y_3.png,3,Y_4.png,4,confidence.png,1,guessing.png,2,respond_yes.png,3,respond_no.png,4,Word 12 of 12,1,Image 3 of 3,1,PRESS: Yes 4,4
1,practiceBlock,centre_mouse,30,40,reveal,Picture1.jpg,N_1.png,1,N_2.png,2,N_3.png,3,N_4.png,4,Y_1.png,1,Y_2.png,2,Y_3.png,3,Y_4.png,4,confidence.png,1,guessing.png,2,respond_yes.png,3,respond_no.png,4,Word 12 of 12,1,Image 3 of 3,1,reveal.png,5
1,reset,reset,1,200,0,Picture1.jpg,0,0,0,0,0,0,0,0,0,0,0,0,0,0,0,0,0,0,0,0,0,0,0,0,0,0,0,0,0,0
1,testBlock,test,1,1,0,im0000041.jpg,+,1,im0000063.jpg,4,mask3.jpg,3,mask4.jpg,4,mask5.jpg,5,mask3.jpg,3,mask5.jpg,5,0,0,0,0,0,0,0,0,0,0,0,0,0,0,0,0
1,testBlock,centre_mouse,2,44,reveal,im0000041.jpg,N_1.png,1,N_2.png,2,N_3.png,3,N_4.png,4,Y_1.png,1,Y_2.png,2,Y_3.png,3,Y_4.png,4,confidence.png,1,guessing.png,2,respond_yes.png,3,respond_no.png,4,Word 0 of 20,1,Image 1 of 5,1,reveal.png,5
1,testBlock,present_trial,3,27,yes_3,im0000063.jpg,N_1.png,1,N_2.png,2,N_3.png,3,N_4.png,4,Y_1.png,1,Y_2.png,2,Y_3.png,3,Y_4.png,4,confidence.png,1,guessing.png,2,respond_yes.png,3,respond_no.png,4,Word 1 of 20,1,Image 1 of 5,1,africa,5
1,testBlock,centre_mouse,4,45,reveal,im0000063.jpg,N_1.png,1,N_2.png,2,N_3.png,3,N_4.png,4,Y_1.png,1,Y_2.png,2,Y_3.png,3,Y_4.png,4,confidence.png,1,guessing.png,2,respond_yes.png,3,respond_no.png,4,Word 1 of 20,1,Image 1 of 5,1,reveal.png,5
1,testBlock,present_trial,5,34,no_1,im0000063.jpg,N_1.png,1,N_2.png,2,N_3.png,3,N_4.png,4,Y_1.png,1,Y_2.png,2,Y_3.png,3,Y_4.png,4,confidence.png,1,guessing.png,2,respond_yes.png,3,respond_no.png,4,Word 2 of 20,1,Image 1 of 5,1,two,4
1,testBlock,centre_mouse,6,53,reveal,im0000063.jpg,N_1.png,1,N_2.png,2,N_3.png,3,N_4.png,4,Y_1.png,1,Y_2.png,2,Y_3.png,3,Y_4.png,4,confidence.png,1,guessing.png,2,respond_yes.png,3,respond_no.png,4,Word 2 of 20,1,Image 1 of 5,1,reveal.png,5
1,testBlock,absent_trial,7,50,yes_3,im0000063.jpg,N_1.png,1,N_2.png,2,N_3.png,3,N_4.png,4,Y_1.png,1,Y_2.png,2,Y_3.png,3,Y_4.png,4,confidence.png,1,guessing.png,2,respond_yes.png,3,respond_no.png,4,Word 3 of 20,1,Image 1 of 5,1,vulture,22
1,testBlock,centre_mouse,8,36,reveal,im0000063.jpg,N_1.png,1,N_2.png,2,N_3.png,3,N_4.png,4,Y_1.png,1,Y_2.png,2,Y_3.png,3,Y_4.png,4,confidence.png,1,guessing.png,2,respond_yes.png,3,respond_no.png,4,Word 3 of 20,1,Image 1 of 5,1,reveal.png,5
1,testBlock,absent_trial,9,27,yes_1,im0000063.jpg,N_1.png,1,N_2.png,2,N_3.png,3,N_4.png,4,Y_1.png,1,Y_2.png,2,Y_3.png,3,Y_4.png,4,confidence.png,1,guessing.png,2,respond_yes.png,3,respond_no.png,4,Word 4 of 20,1,Image 1 of 5,1,gross,31
1,testBlock,centre_mouse,10,29,reveal,im0000063.jpg,N_1.png,1,N_2.png,2,N_3.png,3,N_4.png,4,Y_1.png,1,Y_2.png,2,Y_3.png,3,Y_4.png,4,confidence.png,1,guessing.png,2,respond_yes.png,3,respond_no.png,4,Word 4 of 20,1,Image 1 of 5,1,reveal.png,5
1,testBlock,absent_trial,11,41,no_3,im0000063.jpg,N_1.png,1,N_2.png,2,N_3.png,3,N_4.png,4,Y_1.png,1,Y_2.png,2,Y_3.png,3,Y_4.png,4,confidence.png,1,guessing.png,2,respond_yes.png,3,respond_no.png,4,Word 5 of 20,1,Image 1 of 5,1,awesome,24
1,testBlock,centre_mouse,12,25,reveal,im0000063.jpg,N_1.png,1,N_2.png,2,N_3.png,3,N_4.png,4,Y_1.png,1,Y_2.png,2,Y_3.png,3,Y_4.png,4,confidence.png,1,guessing.png,2,respond_yes.png,3,respond_no.png,4,Word 5 of 20,1,Image 1 of 5,1,reveal.png,5
1,testBlock,present_trial,13,49,no_1,im0000063.jpg,N_1.png,1,N_2.png,2,N_3.png,3,N_4.png,4,Y_1.png,1,Y_2.png,2,Y_3.png,3,Y_4.png,4,confidence.png,1,guessing.png,2,respond_yes.png,3,respond_no.png,4,Word 6 of 20,1,Image 1 of 5,1,animal,7
1,testBlock,centre_mouse,14,20,reveal,im0000063.jpg,N_1.png,1,N_2.png,2,N_3.png,3,N_4.png,4,Y_1.png,1,Y_2.png,2,Y_3.png,3,Y_4.png,4,confidence.png,1,guessing.png,2,respond_yes.png,3,respond_no.png,4,Word 6 of 20,1,Image 1 of 5,1,reveal.png,5
1,testBlock,absent_trial,15,52,no_4,im0000063.jpg,N_1.png,1,N_2.png,2,N_3.png,3,N_4.png,4,Y_1.png,1,Y_2.png,2,Y_3.png,3,Y_4.png,4,confidence.png,1,guessing.png,2,respond_yes.png,3,respond_no.png,4,Word 7 of 20,1,Image 1 of 5,1,celebration,13
1,testBlock,centre_mouse,16,45,reveal,im0000063.jpg,N_1.png,1,N_2.png,2,N_3.png,3,N_4.png,4,Y_1.png,1,Y_2.png,2,Y_3.png,3,Y_4.png,4,confidence.png,1,guessing.png,2,respond_yes.png,3,respond_no.png,4,Word 7 of 20,1,Image 1 of 5,1,reveal.png,5
1,testBlock,present_trial,17,41,yes_4,im0000063.jpg,N_1.png,1,N_2.png,2,N_3.png,3,N_4.png,4,Y_1.png,1,Y_2.png,2,Y_3.png,3,Y_4.png,4,confidence.png,1,guessing.png,2,respond_yes.png,3,respond_no.png,4,Word 8 of 20,1,Image 1 of 5,1,family,8
1,testBlock,centre_mouse,18,62,reveal,im0000063.jpg,N_1.png,1,N_2.png,2,N_3.png,3,N_4.png,4,Y_1.png,1,Y_2.png,2,Y_3.png,3,Y_4.png,4,confidence.png,1,guessing.png,2,respond_yes.png,3,respond_no.png,4,Word 8 of 20,1,Image 1 of 5,1,reveal.png,5
1,testBlock,catch_absent_trial,19,51,no_4,im0000063.jpg,N_1.png,1,N_2.png,2,N_3.png,3,N_4.png,4,Y_1.png,1,Y_2.png,2,Y_3.png,3,Y_4.png,4,confidence.png,1,guessing.png,2,respond_yes.png,3,respond_no.png,4,Word 8 of 20,1,Image 1 of 5,1,PRESS: No 1,1
1,testBlock,centre_mouse,20,45,reveal,im0000063.jpg,N_1.png,1,N_2.png,2,N_3.png,3,N_4.png,4,Y_1.png,1,Y_2.png,2,Y_3.png,3,Y_4.png,4,confidence.png,1,guessing.png,2,respond_yes.png,3,respond_no.png,4,Word 8 of 20,1,Image 1 of 5,1,reveal.png,5
1,testBlock,absent_trial,21,29,no_4,im0000063.jpg,N_1.png,1,N_2.png,2,N_3.png,3,N_4.png,4,Y_1.png,1,Y_2.png,2,Y_3.png,3,Y_4.png,4,confidence.png,1,guessing.png,2,respond_yes.png,3,respond_no.png,4,Word 9 of 20,1,Image 1 of 5,1,old,37
1,testBlock,centre_mouse,22,23,reveal,im0000063.jpg,N_1.png,1,N_2.png,2,N_3.png,3,N_4.png,4,Y_1.png,1,Y_2.png,2,Y_3.png,3,Y_4.png,4,confidence.png,1,guessing.png,2,respond_yes.png,3,respond_no.png,4,Word 9 of 20,1,Image 1 of 5,1,reveal.png,5
1,testBlock,present_trial,23,34,no_1,im0000063.jpg,N_1.png,1,N_2.png,2,N_3.png,3,N_4.png,4,Y_1.png,1,Y_2.png,2,Y_3.png,3,Y_4.png,4,confidence.png,1,guessing.png,2,respond_yes.png,3,respond_no.png,4,Word 10 of 20,1,Image 1 of 5,1,dirt,9
1,testBlock,centre_mouse,24,44,reveal,im0000063.jpg,N_1.png,1,N_2.png,2,N_3.png,3,N_4.png,4,Y_1.png,1,Y_2.png,2,Y_3.png,3,Y_4.png,4,confidence.png,1,guessing.png,2,respond_yes.png,3,respond_no.png,4,Word 10 of 20,1,Image 1 of 5,1,reveal.png,5
1,testBlock,absent_trial,25,32,no_4,im0000063.jpg,N_1.png,1,N_2.png,2,N_3.png,3,N_4.png,4,Y_1.png,1,Y_2.png,2,Y_3.png,3,Y_4.png,4,confidence.png,1,guessing.png,2,respond_yes.png,3,respond_no.png,4,Word 11 of 20,1,Image 1 of 5,1,snowy,5
1,testBlock,centre_mouse,26,53,reveal,im0000063.jpg,N_1.png,1,N_2.png,2,N_3.png,3,N_4.png,4,Y_1.png,1,Y_2.png,2,Y_3.png,3,Y_4.png,4,confidence.png,1,guessing.png,2,respond_yes.png,3,respond_no.png,4,Word 11 of 20,1,Image 1 of 5,1,reveal.png,5
1,testBlock,present_trial,27,39,yes_3,im0000063.jpg,N_1.png,1,N_2.png,2,N_3.png,3,N_4.png,4,Y_1.png,1,Y_2.png,2,Y_3.png,3,Y_4.png,4,confidence.png,1,guessing.png,2,respond_yes.png,3,respond_no.png,4,Word 12 of 20,1,Image 1 of 5,1,hippo,2
1,testBlock,centre_mouse,28,25,reveal,im0000063.jpg,N_1.png,1,N_2.png,2,N_3.png,3,N_4.png,4,Y_1.png,1,Y_2.png,2,Y_3.png,3,Y_4.png,4,confidence.png,1,guessing.png,2,respond_yes.png,3,respond_no.png,4,Word 12 of 20,1,Image 1 of 5,1,reveal.png,5
1,testBlock,present_trial,29,41,yes_4,im0000063.jpg,N_1.png,1,N_2.png,2,N_3.png,3,N_4.png,4,Y_1.png,1,Y_2.png,2,Y_3.png,3,Y_4.png,4,confidence.png,1,guessing.png,2,respond_yes.png,3,respond_no.png,4,Word 13 of 20,1,Image 1 of 5,1,baby,3
1,testBlock,centre_mouse,30,41,reveal,im0000063.jpg,N_1.png,1,N_2.png,2,N_3.png,3,N_4.png,4,Y_1.png,1,Y_2.png,2,Y_3.png,3,Y_4.png,4,confidence.png,1,guessing.png,2,respond_yes.png,3,respond_no.png,4,Word 13 of 20,1,Image 1 of 5,1,reveal.png,5
1,testBlock,absent_trial,31,36,no_4,im0000063.jpg,N_1.png,1,N_2.png,2,N_3.png,3,N_4.png,4,Y_1.png,1,Y_2.png,2,Y_3.png,3,Y_4.png,4,confidence.png,1,guessing.png,2,respond_yes.png,3,respond_no.png,4,Word 14 of 20,1,Image 1 of 5,1,man,28
1,testBlock,centre_mouse,32,37,reveal,im0000063.jpg,N_1.png,1,N_2.png,2,N_3.png,3,N_4.png,4,Y_1.png,1,Y_2.png,2,Y_3.png,3,Y_4.png,4,confidence.png,1,guessing.png,2,respond_yes.png,3,respond_no.png,4,Word 14 of 20,1,Image 1 of 5,1,reveal.png,5
1,testBlock,present_trial,33,40,yes_3,im0000063.jpg,N_1.png,1,N_2.png,2,N_3.png,3,N_4.png,4,Y_1.png,1,Y_2.png,2,Y_3.png,3,Y_4.png,4,confidence.png,1,guessing.png,2,respond_yes.png,3,respond_no.png,4,Word 15 of 20,1,Image 1 of 5,1,river,10
1,testBlock,centre_mouse,34,46,reveal,im0000063.jpg,N_1.png,1,N_2.png,2,N_3.png,3,N_4.png,4,Y_1.png,1,Y_2.png,2,Y_3.png,3,Y_4.png,4,confidence.png,1,guessing.png,2,respond_yes.png,3,respond_no.png,4,Word 15 of 20,1,Image 1 of 5,1,reveal.png,5
1,testBlock,absent_trial,35,33,no_3,im0000063.jpg,N_1.png,1,N_2.png,2,N_3.png,3,N_4.png,4,Y_1.png,1,Y_2.png,2,Y_3.png,3,Y_4.png,4,confidence.png,1,guessing.png,2,respond_yes.png,3,respond_no.png,4,Word 16 of 20,1,Image 1 of 5,1,pretty,25
1,testBlock,centre_mouse,36,33,reveal,im0000063.jpg,N_1.png,1,N_2.png,2,N_3.png,3,N_4.png,4,Y_1.png,1,Y_2.png,2,Y_3.png,3,Y_4.png,4,confidence.png,1,guessing.png,2,respond_yes.png,3,respond_no.png,4,Word 16 of 20,1,Image 1 of 5,1,reveal.png,5
1,testBlock,catch_absent_trial,37,34,no_1,im0000063.jpg,N_1.png,1,N_2.png,2,N_3.png,3,N_4.png,4,Y_1.png,1,Y_2.png,2,Y_3.png,3,Y_4.png,4,confidence.png,1,guessing.png,2,respond_yes.png,3,respond_no.png,4,Word 16 of 20,1,Image 1 of 5,1,PRESS: No 2,2
1,testBlock,centre_mouse,38,31,reveal,im0000063.jpg,N_1.png,1,N_2.png,2,N_3.png,3,N_4.png,4,Y_1.png,1,Y_2.png,2,Y_3.png,3,Y_4.png,4,confidence.png,1,guessing.png,2,respond_yes.png,3,respond_no.png,4,Word 16 of 20,1,Image 1 of 5,1,reveal.png,5
1,testBlock,present_trial,39,55,yes_4,im0000063.jpg,N_1.png,1,N_2.png,2,N_3.png,3,N_4.png,4,Y_1.png,1,Y_2.png,2,Y_3.png,3,Y_4.png,4,confidence.png,1,guessing.png,2,respond_yes.png,3,respond_no.png,4,Word 17 of 20,1,Image 1 of 5,1,rhino,6
1,testBlock,centre_mouse,40,41,reveal,im0000063.jpg,N_1.png,1,N_2.png,2,N_3.png,3,N_4.png,4,Y_1.png,1,Y_2.png,2,Y_3.png,3,Y_4.png,4,confidence.png,1,guessing.png,2,respond_yes.png,3,respond_no.png,4,Word 17 of 20,1,Image 1 of 5,1,reveal.png,5
1,testBlock,present_trial,41,53,yes_4,im0000063.jpg,N_1.png,1,N_2.png,2,N_3.png,3,N_4.png,4,Y_1.png,1,Y_2.png,2,Y_3.png,3,Y_4.png,4,confidence.png,1,guessing.png,2,respond_yes.png,3,respond_no.png,4,Word 18 of 20,1,Image 1 of 5,1,water,1
1,testBlock,centre_mouse,42,55,reveal,im0000063.jpg,N_1.png,1,N_2.png,2,N_3.png,3,N_4.png,4,Y_1.png,1,Y_2.png,2,Y_3.png,3,Y_4.png,4,confidence.png,1,guessing.png,2,respond_yes.png,3,respond_no.png,4,Word 18 of 20,1,Image 1 of 5,1,reveal.png,5
1,testBlock,absent_trial,43,43,no_3,im0000063.jpg,N_1.png,1,N_2.png,2,N_3.png,3,N_4.png,4,Y_1.png,1,Y_2.png,2,Y_3.png,3,Y_4.png,4,confidence.png,1,guessing.png,2,respond_yes.png,3,respond_no.png,4,Word 19 of 20,1,Image 1 of 5,1,clothe,10
1,testBlock,centre_mouse,44,65,reveal,im0000063.jpg,N_1.png,1,N_2.png,2,N_3.png,3,N_4.png,4,Y_1.png,1,Y_2.png,2,Y_3.png,3,Y_4.png,4,confidence.png,1,guessing.png,2,respond_yes.png,3,respond_no.png,4,Word 19 of 20,1,Image 1 of 5,1,reveal.png,5
1,testBlock,absent_trial,45,33,no_3,im0000063.jpg,N_1.png,1,N_2.png,2,N_3.png,3,N_4.png,4,Y_1.png,1,Y_2.png,2,Y_3.png,3,Y_4.png,4,confidence.png,1,guessing.png,2,respond_yes.png,3,respond_no.png,4,Word 20 of 20,1,Image 1 of 5,1,amaze,39
1,testBlock,centre_mouse,46,47,reveal,im0000063.jpg,N_1.png,1,N_2.png,2,N_3.png,3,N_4.png,4,Y_1.png,1,Y_2.png,2,Y_3.png,3,Y_4.png,4,confidence.png,1,guessing.png,2,respond_yes.png,3,respond_no.png,4,Word 20 of 20,1,Image 1 of 5,1,reveal.png,5
1,testBlock,test,1,1,0,im0000063.jpg,+,1,im0000050.jpg,2,mask1.jpg,1,mask1.jpg,1,mask2.jpg,2,mask5.jpg,5,mask2.jpg,2,0,0,0,0,0,0,0,0,0,0,0,0,0,0,0,0
1,testBlock,centre_mouse,2,46,reveal,im0000063.jpg,N_1.png,1,N_2.png,2,N_3.png,3,N_4.png,4,Y_1.png,1,Y_2.png,2,Y_3.png,3,Y_4.png,4,confidence.png,1,guessing.png,2,respond_yes.png,3,respond_no.png,4,Word 0 of 20,1,Image 2 of 5,1,reveal.png,5
1,testBlock,absent_trial,3,33,no_4,im0000050.jpg,N_1.png,1,N_2.png,2,N_3.png,3,N_4.png,4,Y_1.png,1,Y_2.png,2,Y_3.png,3,Y_4.png,4,confidence.png,1,guessing.png,2,respond_yes.png,3,respond_no.png,4,Word 1 of 20,1,Image 2 of 5,1,coin,17
1,testBlock,centre_mouse,4,44,reveal,im0000050.jpg,N_1.png,1,N_2.png,2,N_3.png,3,N_4.png,4,Y_1.png,1,Y_2.png,2,Y_3.png,3,Y_4.png,4,confidence.png,1,guessing.png,2,respond_yes.png,3,respond_no.png,4,Word 1 of 20,1,Image 2 of 5,1,reveal.png,5
1,testBlock,present_trial,5,20,no_3,im0000050.jpg,N_1.png,1,N_2.png,2,N_3.png,3,N_4.png,4,Y_1.png,1,Y_2.png,2,Y_3.png,3,Y_4.png,4,confidence.png,1,guessing.png,2,respond_yes.png,3,respond_no.png,4,Word 2 of 20,1,Image 2 of 5,1,purchase,9
1,testBlock,centre_mouse,6,29,reveal,im0000050.jpg,N_1.png,1,N_2.png,2,N_3.png,3,N_4.png,4,Y_1.png,1,Y_2.png,2,Y_3.png,3,Y_4.png,4,confidence.png,1,guessing.png,2,respond_yes.png,3,respond_no.png,4,Word 2 of 20,1,Image 2 of 5,1,reveal.png,5
1,testBlock,present_trial,7,52,yes_3,im0000050.jpg,N_1.png,1,N_2.png,2,N_3.png,3,N_4.png,4,Y_1.png,1,Y_2.png,2,Y_3.png,3,Y_4.png,4,confidence.png,1,guessing.png,2,respond_yes.png,3,respond_no.png,4,Word 3 of 20,1,Image 2 of 5,1,man,1
1,testBlock,centre_mouse,8,37,reveal,im0000050.jpg,N_1.png,1,N_2.png,2,N_3.png,3,N_4.png,4,Y_1.png,1,Y_2.png,2,Y_3.png,3,Y_4.png,4,confidence.png,1,guessing.png,2,respond_yes.png,3,respond_no.png,4,Word 3 of 20,1,Image 2 of 5,1,reveal.png,5
1,testBlock,present_trial,9,44,no_2,im0000050.jpg,N_1.png,1,N_2.png,2,N_3.png,3,N_4.png,4,Y_1.png,1,Y_2.png,2,Y_3.png,3,Y_4.png,4,confidence.png,1,guessing.png,2,respond_yes.png,3,respond_no.png,4,Word 4 of 20,1,Image 2 of 5,1,banana,10
1,testBlock,centre_mouse,10,29,reveal,im0000050.jpg,N_1.png,1,N_2.png,2,N_3.png,3,N_4.png,4,Y_1.png,1,Y_2.png,2,Y_3.png,3,Y_4.png,4,confidence.png,1,guessing.png,2,respond_yes.png,3,respond_no.png,4,Word 4 of 20,1,Image 2 of 5,1,reveal.png,5
1,testBlock,present_trial,11,47,yes_3,im0000050.jpg,N_1.png,1,N_2.png,2,N_3.png,3,N_4.png,4,Y_1.png,1,Y_2.png,2,Y_3.png,3,Y_4.png,4,confidence.png,1,guessing.png,2,respond_yes.png,3,respond_no.png,4,Word 5 of 20,1,Image 2 of 5,1,apple,6
1,testBlock,centre_mouse,12,39,reveal,im0000050.jpg,N_1.png,1,N_2.png,2,N_3.png,3,N_4.png,4,Y_1.png,1,Y_2.png,2,Y_3.png,3,Y_4.png,4,confidence.png,1,guessing.png,2,respond_yes.png,3,respond_no.png,4,Word 5 of 20,1,Image 2 of 5,1,reveal.png,5
1,testBlock,absent_trial,13,25,no_4,im0000050.jpg,N_1.png,1,N_2.png,2,N_3.png,3,N_4.png,4,Y_1.png,1,Y_2.png,2,Y_3.png,3,Y_4.png,4,confidence.png,1,guessing.png,2,respond_yes.png,3,respond_no.png,4,Word 6 of 20,1,Image 2 of 5,1,sunny-day,36
1,testBlock,centre_mouse,14,50,reveal,im0000050.jpg,N_1.png,1,N_2.png,2,N_3.png,3,N_4.png,4,Y_1.png,1,Y_2.png,2,Y_3.png,3,Y_4.png,4,confidence.png,1,guessing.png,2,respond_yes.png,3,respond_no.png,4,Word 6 of 20,1,Image 2 of 5,1,reveal.png,5
1,testBlock,absent_trial,15,33,yes_1,im0000050.jpg,N_1.png,1,N_2.png,2,N_3.png,3,N_4.png,4,Y_1.png,1,Y_2.png,2,Y_3.png,3,Y_4.png,4,confidence.png,1,guessing.png,2,respond_yes.png,3,respond_no.png,4,Word 7 of 20,1,Image 2 of 5,1,insect,40
1,testBlock,centre_mouse,16,39,reveal,im0000050.jpg,N_1.png,1,N_2.png,2,N_3.png,3,N_4.png,4,Y_1.png,1,Y_2.png,2,Y_3.png,3,Y_4.png,4,confidence.png,1,guessing.png,2,respond_yes.png,3,respond_no.png,4,Word 7 of 20,1,Image 2 of 5,1,reveal.png,5
1,testBlock,absent_trial,17,38,no_2,im0000050.jpg,N_1.png,1,N_2.png,2,N_3.png,3,N_4.png,4,Y_1.png,1,Y_2.png,2,Y_3.png,3,Y_4.png,4,confidence.png,1,guessing.png,2,respond_yes.png,3,respond_no.png,4,Word 8 of 20,1,Image 2 of 5,1,grey-clothes,4
1,testBlock,centre_mouse,18,40,reveal,im0000050.jpg,N_1.png,1,N_2.png,2,N_3.png,3,N_4.png,4,Y_1.png,1,Y_2.png,2,Y_3.png,3,Y_4.png,4,confidence.png,1,guessing.png,2,respond_yes.png,3,respond_no.png,4,Word 8 of 20,1,Image 2 of 5,1,reveal.png,5
1,testBlock,catch_absent_trial,19,41,no_3,im0000050.jpg,N_1.png,1,N_2.png,2,N_3.png,3,N_4.png,4,Y_1.png,1,Y_2.png,2,Y_3.png,3,Y_4.png,4,confidence.png,1,guessing.png,2,respond_yes.png,3,respond_no.png,4,Word 8 of 20,1,Image 2 of 5,1,PRESS: No 3,3
1,testBlock,centre_mouse,20,55,reveal,im0000050.jpg,N_1.png,1,N_2.png,2,N_3.png,3,N_4.png,4,Y_1.png,1,Y_2.png,2,Y_3.png,3,Y_4.png,4,confidence.png,1,guessing.png,2,respond_yes.png,3,respond_no.png,4,Word 8 of 20,1,Image 2 of 5,1,reveal.png,5
1,testBlock,absent_trial,21,46,yes_1,im0000050.jpg,N_1.png,1,N_2.png,2,N_3.png,3,N_4.png,4,Y_1.png,1,Y_2.png,2,Y_3.png,3,Y_4.png,4,confidence.png,1,guessing.png,2,respond_yes.png,3,respond_no.png,4,Word 9 of 20,1,Image 2 of 5,1,look,9
1,testBlock,centre_mouse,22,35,reveal,im0000050.jpg,N_1.png,1,N_2.png,2,N_3.png,3,N_4.png,4,Y_1.png,1,Y_2.png,2,Y_3.png,3,Y_4.png,4,confidence.png,1,guessing.png,2,respond_yes.png,3,respond_no.png,4,Word 9 of 20,1,Image 2 of 5,1,reveal.png,5
1,testBlock,absent_trial,23,38,no_3,im0000050.jpg,N_1.png,1,N_2.png,2,N_3.png,3,N_4.png,4,Y_1.png,1,Y_2.png,2,Y_3.png,3,Y_4.png,4,confidence.png,1,guessing.png,2,respond_yes.png,3,respond_no.png,4,Word 10 of 20,1,Image 2 of 5,1,sunny-afternoon,19
1,testBlock,centre_mouse,24,52,reveal,im0000050.jpg,N_1.png,1,N_2.png,2,N_3.png,3,N_4.png,4,Y_1.png,1,Y_2.png,2,Y_3.png,3,Y_4.png,4,confidence.png,1,guessing.png,2,respond_yes.png,3,respond_no.png,4,Word 10 of 20,1,Image 2 of 5,1,reveal.png,5
1,testBlock,present_trial,25,61,yes_4,im0000050.jpg,N_1.png,1,N_2.png,2,N_3.png,3,N_4.png,4,Y_1.png,1,Y_2.png,2,Y_3.png,3,Y_4.png,4,confidence.png,1,guessing.png,2,respond_yes.png,3,respond_no.png,4,Word 11 of 20,1,Image 2 of 5,1,fruit,2
1,testBlock,centre_mouse,26,49,reveal,im0000050.jpg,N_1.png,1,N_2.png,2,N_3.png,3,N_4.png,4,Y_1.png,1,Y_2.png,2,Y_3.png,3,Y_4.png,4,confidence.png,1,guessing.png,2,respond_yes.png,3,respond_no.png,4,Word 11 of 20,1,Image 2 of 5,1,reveal.png,5
1,testBlock,present_trial,27,44,yes_2,im0000050.jpg,N_1.png,1,N_2.png,2,N_3.png,3,N_4.png,4,Y_1.png,1,Y_2.png,2,Y_3.png,3,Y_4.png,4,confidence.png,1,guessing.png,2,respond_yes.png,3,respond_no.png,4,Word 12 of 20,1,Image 2 of 5,1,store,8
1,testBlock,centre_mouse,28,40,reveal,im0000050.jpg,N_1.png,1,N_2.png,2,N_3.png,3,N_4.png,4,Y_1.png,1,Y_2.png,2,Y_3.png,3,Y_4.png,4,confidence.png,1,guessing.png,2,respond_yes.png,3,respond_no.png,4,Word 12 of 20,1,Image 2 of 5,1,reveal.png,5
1,testBlock,absent_trial,29,32,no_3,im0000050.jpg,N_1.png,1,N_2.png,2,N_3.png,3,N_4.png,4,Y_1.png,1,Y_2.png,2,Y_3.png,3,Y_4.png,4,confidence.png,1,guessing.png,2,respond_yes.png,3,respond_no.png,4,Word 13 of 20,1,Image 2 of 5,1,person,10
1,testBlock,centre_mouse,30,41,reveal,im0000050.jpg,N_1.png,1,N_2.png,2,N_3.png,3,N_4.png,4,Y_1.png,1,Y_2.png,2,Y_3.png,3,Y_4.png,4,confidence.png,1,guessing.png,2,respond_yes.png,3,respond_no.png,4,Word 13 of 20,1,Image 2 of 5,1,reveal.png,5
1,testBlock,present_trial,31,40,yes_4,im0000050.jpg,N_1.png,1,N_2.png,2,N_3.png,3,N_4.png,4,Y_1.png,1,Y_2.png,2,Y_3.png,3,Y_4.png,4,confidence.png,1,guessing.png,2,respond_yes.png,3,respond_no.png,4,Word 14 of 20,1,Image 2 of 5,1,market,5
1,testBlock,centre_mouse,32,36,reveal,im0000050.jpg,N_1.png,1,N_2.png,2,N_3.png,3,N_4.png,4,Y_1.png,1,Y_2.png,2,Y_3.png,3,Y_4.png,4,confidence.png,1,guessing.png,2,respond_yes.png,3,respond_no.png,4,Word 14 of 20,1,Image 2 of 5,1,reveal.png,5
1,testBlock,absent_trial,33,43,no_3,im0000050.jpg,N_1.png,1,N_2.png,2,N_3.png,3,N_4.png,4,Y_1.png,1,Y_2.png,2,Y_3.png,3,Y_4.png,4,confidence.png,1,guessing.png,2,respond_yes.png,3,respond_no.png,4,Word 15 of 20,1,Image 2 of 5,1,bundle,7
1,testBlock,centre_mouse,34,51,reveal,im0000050.jpg,N_1.png,1,N_2.png,2,N_3.png,3,N_4.png,4,Y_1.png,1,Y_2.png,2,Y_3.png,3,Y_4.png,4,confidence.png,1,guessing.png,2,respond_yes.png,3,respond_no.png,4,Word 15 of 20,1,Image 2 of 5,1,reveal.png,5
1,testBlock,present_trial,35,33,no_3,im0000050.jpg,N_1.png,1,N_2.png,2,N_3.png,3,N_4.png,4,Y_1.png,1,Y_2.png,2,Y_3.png,3,Y_4.png,4,confidence.png,1,guessing.png,2,respond_yes.png,3,respond_no.png,4,Word 16 of 20,1,Image 2 of 5,1,orange,7
1,testBlock,centre_mouse,36,41,reveal,im0000050.jpg,N_1.png,1,N_2.png,2,N_3.png,3,N_4.png,4,Y_1.png,1,Y_2.png,2,Y_3.png,3,Y_4.png,4,confidence.png,1,guessing.png,2,respond_yes.png,3,respond_no.png,4,Word 16 of 20,1,Image 2 of 5,1,reveal.png,5
1,testBlock,catch_absent_trial,37,49,no_2,im0000050.jpg,N_1.png,1,N_2.png,2,N_3.png,3,N_4.png,4,Y_1.png,1,Y_2.png,2,Y_3.png,3,Y_4.png,4,confidence.png,1,guessing.png,2,respond_yes.png,3,respond_no.png,4,Word 16 of 20,1,Image 2 of 5,1,PRESS: No 1,1
1,testBlock,centre_mouse,38,29,reveal,im0000050.jpg,N_1.png,1,N_2.png,2,N_3.png,3,N_4.png,4,Y_1.png,1,Y_2.png,2,Y_3.png,3,Y_4.png,4,confidence.png,1,guessing.png,2,respond_yes.png,3,respond_no.png,4,Word 16 of 20,1,Image 2 of 5,1,reveal.png,5
1,testBlock,absent_trial,39,29,no_4,im0000050.jpg,N_1.png,1,N_2.png,2,N_3.png,3,N_4.png,4,Y_1.png,1,Y_2.png,2,Y_3.png,3,Y_4.png,4,confidence.png,1,guessing.png,2,respond_yes.png,3,respond_no.png,4,Word 17 of 20,1,Image 2 of 5,1,gate,11
1,testBlock,centre_mouse,40,59,reveal,im0000050.jpg,N_1.png,1,N_2.png,2,N_3.png,3,N_4.png,4,Y_1.png,1,Y_2.png,2,Y_3.png,3,Y_4.png,4,confidence.png,1,guessing.png,2,respond_yes.png,3,respond_no.png,4,Word 17 of 20,1,Image 2 of 5,1,reveal.png,5
1,testBlock,present_trial,41,37,no_1,im0000050.jpg,N_1.png,1,N_2.png,2,N_3.png,3,N_4.png,4,Y_1.png,1,Y_2.png,2,Y_3.png,3,Y_4.png,4,confidence.png,1,guessing.png,2,respond_yes.png,3,respond_no.png,4,Word 18 of 20,1,Image 2 of 5,1,shop,3
1,testBlock,centre_mouse,42,50,reveal,im0000050.jpg,N_1.png,1,N_2.png,2,N_3.png,3,N_4.png,4,Y_1.png,1,Y_2.png,2,Y_3.png,3,Y_4.png,4,confidence.png,1,guessing.png,2,respond_yes.png,3,respond_no.png,4,Word 18 of 20,1,Image 2 of 5,1,reveal.png,5
1,testBlock,absent_trial,43,62,yes_1,im0000050.jpg,N_1.png,1,N_2.png,2,N_3.png,3,N_4.png,4,Y_1.png,1,Y_2.png,2,Y_3.png,3,Y_4.png,4,confidence.png,1,guessing.png,2,respond_yes.png,3,respond_no.png,4,Word 19 of 20,1,Image 2 of 5,1,white,23
1,testBlock,centre_mouse,44,54,reveal,im0000050.jpg,N_1.png,1,N_2.png,2,N_3.png,3,N_4.png,4,Y_1.png,1,Y_2.png,2,Y_3.png,3,Y_4.png,4,confidence.png,1,guessing.png,2,respond_yes.png,3,respond_no.png,4,Word 19 of 20,1,Image 2 of 5,1,reveal.png,5
1,testBlock,present_trial,45,38,no_3,im0000050.jpg,N_1.png,1,N_2.png,2,N_3.png,3,N_4.png,4,Y_1.png,1,Y_2.png,2,Y_3.png,3,Y_4.png,4,confidence.png,1,guessing.png,2,respond_yes.png,3,respond_no.png,4,Word 20 of 20,1,Image 2 of 5,1,people,4
1,testBlock,centre_mouse,46,24,reveal,im0000050.jpg,N_1.png,1,N_2.png,2,N_3.png,3,N_4.png,4,Y_1.png,1,Y_2.png,2,Y_3.png,3,Y_4.png,4,confidence.png,1,guessing.png,2,respond_yes.png,3,respond_no.png,4,Word 20 of 20,1,Image 2 of 5,1,reveal.png,5
1,testBlock,test,1,1,0,im0000050.jpg,+,1,im0000069.jpg,5,mask3.jpg,3,mask2.jpg,2,mask1.jpg,1,mask2.jpg,2,mask1.jpg,1,0,0,0,0,0,0,0,0,0,0,0,0,0,0,0,0
1,testBlock,centre_mouse,2,39,reveal,im0000050.jpg,N_1.png,1,N_2.png,2,N_3.png,3,N_4.png,4,Y_1.png,1,Y_2.png,2,Y_3.png,3,Y_4.png,4,confidence.png,1,guessing.png,2,respond_yes.png,3,respond_no.png,4,Word 0 of 20,1,Image 3 of 5,1,reveal.png,5
1,testBlock,absent_trial,3,38,no_2,im0000069.jpg,N_1.png,1,N_2.png,2,N_3.png,3,N_4.png,4,Y_1.png,1,Y_2.png,2,Y_3.png,3,Y_4.png,4,confidence.png,1,guessing.png,2,respond_yes.png,3,respond_no.png,4,Word 1 of 20,1,Image 3 of 5,1,concert,22
1,testBlock,centre_mouse,4,41,reveal,im0000069.jpg,N_1.png,1,N_2.png,2,N_3.png,3,N_4.png,4,Y_1.png,1,Y_2.png,2,Y_3.png,3,Y_4.png,4,confidence.png,1,guessing.png,2,respond_yes.png,3,respond_no.png,4,Word 1 of 20,1,Image 3 of 5,1,reveal.png,5
1,testBlock,present_trial,5,24,yes_3,im0000069.jpg,N_1.png,1,N_2.png,2,N_3.png,3,N_4.png,4,Y_1.png,1,Y_2.png,2,Y_3.png,3,Y_4.png,4,confidence.png,1,guessing.png,2,respond_yes.png,3,respond_no.png,4,Word 2 of 20,1,Image 3 of 5,1,street,6
1,testBlock,centre_mouse,6,84,reveal,im0000069.jpg,N_1.png,1,N_2.png,2,N_3.png,3,N_4.png,4,Y_1.png,1,Y_2.png,2,Y_3.png,3,Y_4.png,4,confidence.png,1,guessing.png,2,respond_yes.png,3,respond_no.png,4,Word 2 of 20,1,Image 3 of 5,1,reveal.png,5
1,testBlock,present_trial,7,46,yes_4,im0000069.jpg,N_1.png,1,N_2.png,2,N_3.png,3,N_4.png,4,Y_1.png,1,Y_2.png,2,Y_3.png,3,Y_4.png,4,confidence.png,1,guessing.png,2,respond_yes.png,3,respond_no.png,4,Word 3 of 20,1,Image 3 of 5,1,walk,7
1,testBlock,centre_mouse,8,46,reveal,im0000069.jpg,N_1.png,1,N_2.png,2,N_3.png,3,N_4.png,4,Y_1.png,1,Y_2.png,2,Y_3.png,3,Y_4.png,4,confidence.png,1,guessing.png,2,respond_yes.png,3,respond_no.png,4,Word 3 of 20,1,Image 3 of 5,1,reveal.png,5
1,testBlock,absent_trial,9,51,no_2,im0000069.jpg,N_1.png,1,N_2.png,2,N_3.png,3,N_4.png,4,Y_1.png,1,Y_2.png,2,Y_3.png,3,Y_4.png,4,confidence.png,1,guessing.png,2,respond_yes.png,3,respond_no.png,4,Word 4 of 20,1,Image 3 of 5,1,forest,20
1,testBlock,centre_mouse,10,49,reveal,im0000069.jpg,N_1.png,1,N_2.png,2,N_3.png,3,N_4.png,4,Y_1.png,1,Y_2.png,2,Y_3.png,3,Y_4.png,4,confidence.png,1,guessing.png,2,respond_yes.png,3,respond_no.png,4,Word 4 of 20,1,Image 3 of 5,1,reveal.png,5
1,testBlock,absent_trial,11,38,no_4,im0000069.jpg,N_1.png,1,N_2.png,2,N_3.png,3,N_4.png,4,Y_1.png,1,Y_2.png,2,Y_3.png,3,Y_4.png,4,confidence.png,1,guessing.png,2,respond_yes.png,3,respond_no.png,4,Word 5 of 20,1,Image 3 of 5,1,bud,15
1,testBlock,centre_mouse,12,42,reveal,im0000069.jpg,N_1.png,1,N_2.png,2,N_3.png,3,N_4.png,4,Y_1.png,1,Y_2.png,2,Y_3.png,3,Y_4.png,4,confidence.png,1,guessing.png,2,respond_yes.png,3,respond_no.png,4,Word 5 of 20,1,Image 3 of 5,1,reveal.png,5
1,testBlock,absent_trial,13,18,no_4,im0000069.jpg,N_1.png,1,N_2.png,2,N_3.png,3,N_4.png,4,Y_1.png,1,Y_2.png,2,Y_3.png,3,Y_4.png,4,confidence.png,1,guessing.png,2,respond_yes.png,3,respond_no.png,4,Word 6 of 20,1,Image 3 of 5,1,daytime,32
1,testBlock,centre_mouse,14,52,reveal,im0000069.jpg,N_1.png,1,N_2.png,2,N_3.png,3,N_4.png,4,Y_1.png,1,Y_2.png,2,Y_3.png,3,Y_4.png,4,confidence.png,1,guessing.png,2,respond_yes.png,3,respond_no.png,4,Word 6 of 20,1,Image 3 of 5,1,reveal.png,5
1,testBlock,present_trial,15,40,no_3,im0000069.jpg,N_1.png,1,N_2.png,2,N_3.png,3,N_4.png,4,Y_1.png,1,Y_2.png,2,Y_3.png,3,Y_4.png,4,confidence.png,1,guessing.png,2,respond_yes.png,3,respond_no.png,4,Word 7 of 20,1,Image 3 of 5,1,statue,2
1,testBlock,centre_mouse,16,44,reveal,im0000069.jpg,N_1.png,1,N_2.png,2,N_3.png,3,N_4.png,4,Y_1.png,1,Y_2.png,2,Y_3.png,3,Y_4.png,4,confidence.png,1,guessing.png,2,respond_yes.png,3,respond_no.png,4,Word 7 of 20,1,Image 3 of 5,1,reveal.png,5
1,testBlock,present_trial,17,38,yes_4,im0000069.jpg,N_1.png,1,N_2.png,2,N_3.png,3,N_4.png,4,Y_1.png,1,Y_2.png,2,Y_3.png,3,Y_4.png,4,confidence.png,1,guessing.png,2,respond_yes.png,3,respond_no.png,4,Word 8 of 20,1,Image 3 of 5,1,man,8
1,testBlock,centre_mouse,18,55,reveal,im0000069.jpg,N_1.png,1,N_2.png,2,N_3.png,3,N_4.png,4,Y_1.png,1,Y_2.png,2,Y_3.png,3,Y_4.png,4,confidence.png,1,guessing.png,2,respond_yes.png,3,respond_no.png,4,Word 8 of 20,1,Image 3 of 5,1,reveal.png,5
1,testBlock,catch_present_trial,19,18,no_4,im0000069.jpg,N_1.png,1,N_2.png,2,N_3.png,3,N_4.png,4,Y_1.png,1,Y_2.png,2,Y_3.png,3,Y_4.png,4,confidence.png,1,guessing.png,2,respond_yes.png,3,respond_no.png,4,Word 8 of 20,1,Image 3 of 5,1,PRESS: Yes 1,1
1,testBlock,centre_mouse,20,43,reveal,im0000069.jpg,N_1.png,1,N_2.png,2,N_3.png,3,N_4.png,4,Y_1.png,1,Y_2.png,2,Y_3.png,3,Y_4.png,4,confidence.png,1,guessing.png,2,respond_yes.png,3,respond_no.png,4,Word 8 of 20,1,Image 3 of 5,1,reveal.png,5
1,testBlock,absent_trial,21,48,yes_3,im0000069.jpg,N_1.png,1,N_2.png,2,N_3.png,3,N_4.png,4,Y_1.png,1,Y_2.png,2,Y_3.png,3,Y_4.png,4,confidence.png,1,guessing.png,2,respond_yes.png,3,respond_no.png,4,Word 9 of 20,1,Image 3 of 5,1,bath,12
1,testBlock,centre_mouse,22,37,reveal,im0000069.jpg,N_1.png,1,N_2.png,2,N_3.png,3,N_4.png,4,Y_1.png,1,Y_2.png,2,Y_3.png,3,Y_4.png,4,confidence.png,1,guessing.png,2,respond_yes.png,3,respond_no.png,4,Word 9 of 20,1,Image 3 of 5,1,reveal.png,5
1,testBlock,present_trial,23,36,yes_3,im0000069.jpg,N_1.png,1,N_2.png,2,N_3.png,3,N_4.png,4,Y_1.png,1,Y_2.png,2,Y_3.png,3,Y_4.png,4,confidence.png,1,guessing.png,2,respond_yes.png,3,respond_no.png,4,Word 10 of 20,1,Image 3 of 5,1,people,3
1,testBlock,centre_mouse,24,45,reveal,im0000069.jpg,N_1.png,1,N_2.png,2,N_3.png,3,N_4.png,4,Y_1.png,1,Y_2.png,2,Y_3.png,3,Y_4.png,4,confidence.png,1,guessing.png,2,respond_yes.png,3,respond_no.png,4,Word 10 of 20,1,Image 3 of 5,1,reveal.png,5
1,testBlock,absent_trial,25,37,no_4,im0000069.jpg,N_1.png,1,N_2.png,2,N_3.png,3,N_4.png,4,Y_1.png,1,Y_2.png,2,Y_3.png,3,Y_4.png,4,confidence.png,1,guessing.png,2,respond_yes.png,3,respond_no.png,4,Word 11 of 20,1,Image 3 of 5,1,cycle,37
1,testBlock,centre_mouse,26,33,reveal,im0000069.jpg,N_1.png,1,N_2.png,2,N_3.png,3,N_4.png,4,Y_1.png,1,Y_2.png,2,Y_3.png,3,Y_4.png,4,confidence.png,1,guessing.png,2,respond_yes.png,3,respond_no.png,4,Word 11 of 20,1,Image 3 of 5,1,reveal.png,5
1,testBlock,absent_trial,27,36,no_4,im0000069.jpg,N_1.png,1,N_2.png,2,N_3.png,3,N_4.png,4,Y_1.png,1,Y_2.png,2,Y_3.png,3,Y_4.png,4,confidence.png,1,guessing.png,2,respond_yes.png,3,respond_no.png,4,Word 12 of 20,1,Image 3 of 5,1,rock,18
1,testBlock,centre_mouse,28,52,reveal,im0000069.jpg,N_1.png,1,N_2.png,2,N_3.png,3,N_4.png,4,Y_1.png,1,Y_2.png,2,Y_3.png,3,Y_4.png,4,confidence.png,1,guessing.png,2,respond_yes.png,3,respond_no.png,4,Word 12 of 20,1,Image 3 of 5,1,reveal.png,5
1,testBlock,present_trial,29,38,yes_4,im0000069.jpg,N_1.png,1,N_2.png,2,N_3.png,3,N_4.png,4,Y_1.png,1,Y_2.png,2,Y_3.png,3,Y_4.png,4,confidence.png,1,guessing.png,2,respond_yes.png,3,respond_no.png,4,Word 13 of 20,1,Image 3 of 5,1,love,1
1,testBlock,centre_mouse,30,41,reveal,im0000069.jpg,N_1.png,1,N_2.png,2,N_3.png,3,N_4.png,4,Y_1.png,1,Y_2.png,2,Y_3.png,3,Y_4.png,4,confidence.png,1,guessing.png,2,respond_yes.png,3,respond_no.png,4,Word 13 of 20,1,Image 3 of 5,1,reveal.png,5
1,testBlock,present_trial,31,19,yes_3,im0000069.jpg,N_1.png,1,N_2.png,2,N_3.png,3,N_4.png,4,Y_1.png,1,Y_2.png,2,Y_3.png,3,Y_4.png,4,confidence.png,1,guessing.png,2,respond_yes.png,3,respond_no.png,4,Word 14 of 20,1,Image 3 of 5,1,city,5
1,testBlock,centre_mouse,32,59,reveal,im0000069.jpg,N_1.png,1,N_2.png,2,N_3.png,3,N_4.png,4,Y_1.png,1,Y_2.png,2,Y_3.png,3,Y_4.png,4,confidence.png,1,guessing.png,2,respond_yes.png,3,respond_no.png,4,Word 14 of 20,1,Image 3 of 5,1,reveal.png,5
1,testBlock,absent_trial,33,46,no_4,im0000069.jpg,N_1.png,1,N_2.png,2,N_3.png,3,N_4.png,4,Y_1.png,1,Y_2.png,2,Y_3.png,3,Y_4.png,4,confidence.png,1,guessing.png,2,respond_yes.png,3,respond_no.png,4,Word 15 of 20,1,Image 3 of 5,1,stare,24
1,testBlock,centre_mouse,34,57,reveal,im0000069.jpg,N_1.png,1,N_2.png,2,N_3.png,3,N_4.png,4,Y_1.png,1,Y_2.png,2,Y_3.png,3,Y_4.png,4,confidence.png,1,guessing.png,2,respond_yes.png,3,respond_no.png,4,Word 15 of 20,1,Image 3 of 5,1,reveal.png,5
1,testBlock,present_trial,35,24,no_1,im0000069.jpg,N_1.png,1,N_2.png,2,N_3.png,3,N_4.png,4,Y_1.png,1,Y_2.png,2,Y_3.png,3,Y_4.png,4,confidence.png,1,guessing.png,2,respond_yes.png,3,respond_no.png,4,Word 16 of 20,1,Image 3 of 5,1,couple,4
1,testBlock,centre_mouse,36,39,reveal,im0000069.jpg,N_1.png,1,N_2.png,2,N_3.png,3,N_4.png,4,Y_1.png,1,Y_2.png,2,Y_3.png,3,Y_4.png,4,confidence.png,1,guessing.png,2,respond_yes.png,3,respond_no.png,4,Word 16 of 20,1,Image 3 of 5,1,reveal.png,5
1,testBlock,catch_absent_trial,37,43,no_4,im0000069.jpg,N_1.png,1,N_2.png,2,N_3.png,3,N_4.png,4,Y_1.png,1,Y_2.png,2,Y_3.png,3,Y_4.png,4,confidence.png,1,guessing.png,2,respond_yes.png,3,respond_no.png,4,Word 16 of 20,1,Image 3 of 5,1,PRESS: No 4,4
1,testBlock,centre_mouse,38,54,reveal,im0000069.jpg,N_1.png,1,N_2.png,2,N_3.png,3,N_4.png,4,Y_1.png,1,Y_2.png,2,Y_3.png,3,Y_4.png,4,confidence.png,1,guessing.png,2,respond_yes.png,3,respond_no.png,4,Word 16 of 20,1,Image 3 of 5,1,reveal.png,5
1,testBlock,present_trial,39,38,yes_4,im0000069.jpg,N_1.png,1,N_2.png,2,N_3.png,3,N_4.png,4,Y_1.png,1,Y_2.png,2,Y_3.png,3,Y_4.png,4,confidence.png,1,guessing.png,2,respond_yes.png,3,respond_no.png,4,Word 17 of 20,1,Image 3 of 5,1,chicago,10
1,testBlock,centre_mouse,40,50,reveal,im0000069.jpg,N_1.png,1,N_2.png,2,N_3.png,3,N_4.png,4,Y_1.png,1,Y_2.png,2,Y_3.png,3,Y_4.png,4,confidence.png,1,guessing.png,2,respond_yes.png,3,respond_no.png,4,Word 17 of 20,1,Image 3 of 5,1,reveal.png,5
1,testBlock,absent_trial,41,53,no_4,im0000069.jpg,N_1.png,1,N_2.png,2,N_3.png,3,N_4.png,4,Y_1.png,1,Y_2.png,2,Y_3.png,3,Y_4.png,4,confidence.png,1,guessing.png,2,respond_yes.png,3,respond_no.png,4,Word 18 of 20,1,Image 3 of 5,1,swimsuit,36
1,testBlock,centre_mouse,42,53,reveal,im0000069.jpg,N_1.png,1,N_2.png,2,N_3.png,3,N_4.png,4,Y_1.png,1,Y_2.png,2,Y_3.png,3,Y_4.png,4,confidence.png,1,guessing.png,2,respond_yes.png,3,respond_no.png,4,Word 18 of 20,1,Image 3 of 5,1,reveal.png,5
1,testBlock,present_trial,43,36,yes_1,im0000069.jpg,N_1.png,1,N_2.png,2,N_3.png,3,N_4.png,4,Y_1.png,1,Y_2.png,2,Y_3.png,3,Y_4.png,4,confidence.png,1,guessing.png,2,respond_yes.png,3,respond_no.png,4,Word 19 of 20,1,Image 3 of 5,1,art,9
1,testBlock,centre_mouse,44,21,reveal,im0000069.jpg,N_1.png,1,N_2.png,2,N_3.png,3,N_4.png,4,Y_1.png,1,Y_2.png,2,Y_3.png,3,Y_4.png,4,confidence.png,1,guessing.png,2,respond_yes.png,3,respond_no.png,4,Word 19 of 20,1,Image 3 of 5,1,reveal.png,5
1,testBlock,absent_trial,45,33,no_1,im0000069.jpg,N_1.png,1,N_2.png,2,N_3.png,3,N_4.png,4,Y_1.png,1,Y_2.png,2,Y_3.png,3,Y_4.png,4,confidence.png,1,guessing.png,2,respond_yes.png,3,respond_no.png,4,Word 20 of 20,1,Image 3 of 5,1,history,13
1,testBlock,centre_mouse,46,57,reveal,im0000069.jpg,N_1.png,1,N_2.png,2,N_3.png,3,N_4.png,4,Y_1.png,1,Y_2.png,2,Y_3.png,3,Y_4.png,4,confidence.png,1,guessing.png,2,respond_yes.png,3,respond_no.png,4,Word 20 of 20,1,Image 3 of 5,1,reveal.png,5
1,testBlock,test,1,1,0,im0000069.jpg,+,1,im0000041.jpg,1,mask1.jpg,1,mask3.jpg,3,mask4.jpg,4,mask3.jpg,3,mask5.jpg,5,0,0,0,0,0,0,0,0,0,0,0,0,0,0,0,0
1,testBlock,centre_mouse,2,55,reveal,im0000069.jpg,N_1.png,1,N_2.png,2,N_3.png,3,N_4.png,4,Y_1.png,1,Y_2.png,2,Y_3.png,3,Y_4.png,4,confidence.png,1,guessing.png,2,respond_yes.png,3,respond_no.png,4,Word 0 of 20,1,Image 4 of 5,1,reveal.png,5
1,testBlock,present_trial,3,56,yes_4,im0000041.jpg,N_1.png,1,N_2.png,2,N_3.png,3,N_4.png,4,Y_1.png,1,Y_2.png,2,Y_3.png,3,Y_4.png,4,confidence.png,1,guessing.png,2,respond_yes.png,3,respond_no.png,4,Word 1 of 20,1,Image 4 of 5,1,pasture,3
1,testBlock,centre_mouse,4,33,reveal,im0000041.jpg,N_1.png,1,N_2.png,2,N_3.png,3,N_4.png,4,Y_1.png,1,Y_2.png,2,Y_3.png,3,Y_4.png,4,confidence.png,1,guessing.png,2,respond_yes.png,3,respond_no.png,4,Word 1 of 20,1,Image 4 of 5,1,reveal.png,5
1,testBlock,absent_trial,5,44,no_4,im0000041.jpg,N_1.png,1,N_2.png,2,N_3.png,3,N_4.png,4,Y_1.png,1,Y_2.png,2,Y_3.png,3,Y_4.png,4,confidence.png,1,guessing.png,2,respond_yes.png,3,respond_no.png,4,Word 2 of 20,1,Image 4 of 5,1,barren,24
1,testBlock,centre_mouse,6,31,reveal,im0000041.jpg,N_1.png,1,N_2.png,2,N_3.png,3,N_4.png,4,Y_1.png,1,Y_2.png,2,Y_3.png,3,Y_4.png,4,confidence.png,1,guessing.png,2,respond_yes.png,3,respond_no.png,4,Word 2 of 20,1,Image 4 of 5,1,reveal.png,5
1,testBlock,absent_trial,7,38,yes_4,im0000041.jpg,N_1.png,1,N_2.png,2,N_3.png,3,N_4.png,4,Y_1.png,1,Y_2.png,2,Y_3.png,3,Y_4.png,4,confidence.png,1,guessing.png,2,respond_yes.png,3,respond_no.png,4,Word 3 of 20,1,Image 4 of 5,1,wall,3
1,testBlock,centre_mouse,8,52,reveal,im0000041.jpg,N_1.png,1,N_2.png,2,N_3.png,3,N_4.png,4,Y_1.png,1,Y_2.png,2,Y_3.png,3,Y_4.png,4,confidence.png,1,guessing.png,2,respond_yes.png,3,respond_no.png,4,Word 3 of 20,1,Image 4 of 5,1,reveal.png,5
1,testBlock,absent_trial,9,40,no_4,im0000041.jpg,N_1.png,1,N_2.png,2,N_3.png,3,N_4.png,4,Y_1.png,1,Y_2.png,2,Y_3.png,3,Y_4.png,4,confidence.png,1,guessing.png,2,respond_yes.png,3,respond_no.png,4,Word 4 of 20,1,Image 4 of 5,1,street,22
1,testBlock,centre_mouse,10,40,reveal,im0000041.jpg,N_1.png,1,N_2.png,2,N_3.png,3,N_4.png,4,Y_1.png,1,Y_2.png,2,Y_3.png,3,Y_4.png,4,confidence.png,1,guessing.png,2,respond_yes.png,3,respond_no.png,4,Word 4 of 20,1,Image 4 of 5,1,reveal.png,5
1,testBlock,present_trial,11,42,yes_2,im0000041.jpg,N_1.png,1,N_2.png,2,N_3.png,3,N_4.png,4,Y_1.png,1,Y_2.png,2,Y_3.png,3,Y_4.png,4,confidence.png,1,guessing.png,2,respond_yes.png,3,respond_no.png,4,Word 5 of 20,1,Image 4 of 5,1,horse,5
1,testBlock,centre_mouse,12,49,reveal,im0000041.jpg,N_1.png,1,N_2.png,2,N_3.png,3,N_4.png,4,Y_1.png,1,Y_2.png,2,Y_3.png,3,Y_4.png,4,confidence.png,1,guessing.png,2,respond_yes.png,3,respond_no.png,4,Word 5 of 20,1,Image 4 of 5,1,reveal.png,5
1,testBlock,present_trial,13,21,yes_4,im0000041.jpg,N_1.png,1,N_2.png,2,N_3.png,3,N_4.png,4,Y_1.png,1,Y_2.png,2,Y_3.png,3,Y_4.png,4,confidence.png,1,guessing.png,2,respond_yes.png,3,respond_no.png,4,Word 6 of 20,1,Image 4 of 5,1,outside,8
1,testBlock,centre_mouse,14,40,reveal,im0000041.jpg,N_1.png,1,N_2.png,2,N_3.png,3,N_4.png,4,Y_1.png,1,Y_2.png,2,Y_3.png,3,Y_4.png,4,confidence.png,1,guessing.png,2,respond_yes.png,3,respond_no.png,4,Word 6 of 20,1,Image 4 of 5,1,reveal.png,5
1,testBlock,absent_trial,15,44,no_4,im0000041.jpg,N_1.png,1,N_2.png,2,N_3.png,3,N_4.png,4,Y_1.png,1,Y_2.png,2,Y_3.png,3,Y_4.png,4,confidence.png,1,guessing.png,2,respond_yes.png,3,respond_no.png,4,Word 7 of 20,1,Image 4 of 5,1,chisel,20
1,testBlock,centre_mouse,16,47,reveal,im0000041.jpg,N_1.png,1,N_2.png,2,N_3.png,3,N_4.png,4,Y_1.png,1,Y_2.png,2,Y_3.png,3,Y_4.png,4,confidence.png,1,guessing.png,2,respond_yes.png,3,respond_no.png,4,Word 7 of 20,1,Image 4 of 5,1,reveal.png,5
1,testBlock,present_trial,17,40,yes_3,im0000041.jpg,N_1.png,1,N_2.png,2,N_3.png,3,N_4.png,4,Y_1.png,1,Y_2.png,2,Y_3.png,3,Y_4.png,4,confidence.png,1,guessing.png,2,respond_yes.png,3,respond_no.png,4,Word 8 of 20,1,Image 4 of 5,1,grass,2
1,testBlock,centre_mouse,18,34,reveal,im0000041.jpg,N_1.png,1,N_2.png,2,N_3.png,3,N_4.png,4,Y_1.png,1,Y_2.png,2,Y_3.png,3,Y_4.png,4,confidence.png,1,guessing.png,2,respond_yes.png,3,respond_no.png,4,Word 8 of 20,1,Image 4 of 5,1,reveal.png,5
1,testBlock,catch_present_trial,19,26,yes_3,im0000041.jpg,N_1.png,1,N_2.png,2,N_3.png,3,N_4.png,4,Y_1.png,1,Y_2.png,2,Y_3.png,3,Y_4.png,4,confidence.png,1,guessing.png,2,respond_yes.png,3,respond_no.png,4,Word 8 of 20,1,Image 4 of 5,1,PRESS: Yes 4,4
1,testBlock,centre_mouse,20,36,reveal,im0000041.jpg,N_1.png,1,N_2.png,2,N_3.png,3,N_4.png,4,Y_1.png,1,Y_2.png,2,Y_3.png,3,Y_4.png,4,confidence.png,1,guessing.png,2,respond_yes.png,3,respond_no.png,4,Word 8 of 20,1,Image 4 of 5,1,reveal.png,5
1,testBlock,present_trial,21,57,yes_1,im0000041.jpg,N_1.png,1,N_2.png,2,N_3.png,3,N_4.png,4,Y_1.png,1,Y_2.png,2,Y_3.png,3,Y_4.png,4,confidence.png,1,guessing.png,2,respond_yes.png,3,respond_no.png,4,Word 9 of 20,1,Image 4 of 5,1,cow,1
1,testBlock,centre_mouse,22,44,reveal,im0000041.jpg,N_1.png,1,N_2.png,2,N_3.png,3,N_4.png,4,Y_1.png,1,Y_2.png,2,Y_3.png,3,Y_4.png,4,confidence.png,1,guessing.png,2,respond_yes.png,3,respond_no.png,4,Word 9 of 20,1,Image 4 of 5,1,reveal.png,5
1,testBlock,present_trial,23,29,yes_1,im0000041.jpg,N_1.png,1,N_2.png,2,N_3.png,3,N_4.png,4,Y_1.png,1,Y_2.png,2,Y_3.png,3,Y_4.png,4,confidence.png,1,guessing.png,2,respond_yes.png,3,respond_no.png,4,Word 10 of 20,1,Image 4 of 5,1,sunny,7
1,testBlock,centre_mouse,24,66,reveal,im0000041.jpg,N_1.png,1,N_2.png,2,N_3.png,3,N_4.png,4,Y_1.png,1,Y_2.png,2,Y_3.png,3,Y_4.png,4,confidence.png,1,guessing.png,2,respond_yes.png,3,respond_no.png,4,Word 10 of 20,1,Image 4 of 5,1,reveal.png,5
1,testBlock,absent_trial,25,49,no_3,im0000041.jpg,N_1.png,1,N_2.png,2,N_3.png,3,N_4.png,4,Y_1.png,1,Y_2.png,2,Y_3.png,3,Y_4.png,4,confidence.png,1,guessing.png,2,respond_yes.png,3,respond_no.png,4,Word 11 of 20,1,Image 4 of 5,1,platter,16
1,testBlock,centre_mouse,26,44,reveal,im0000041.jpg,N_1.png,1,N_2.png,2,N_3.png,3,N_4.png,4,Y_1.png,1,Y_2.png,2,Y_3.png,3,Y_4.png,4,confidence.png,1,guessing.png,2,respond_yes.png,3,respond_no.png,4,Word 11 of 20,1,Image 4 of 5,1,reveal.png,5
1,testBlock,absent_trial,27,56,no_3,im0000041.jpg,N_1.png,1,N_2.png,2,N_3.png,3,N_4.png,4,Y_1.png,1,Y_2.png,2,Y_3.png,3,Y_4.png,4,confidence.png,1,guessing.png,2,respond_yes.png,3,respond_no.png,4,Word 12 of 20,1,Image 4 of 5,1,play,25
1,testBlock,centre_mouse,28,62,reveal,im0000041.jpg,N_1.png,1,N_2.png,2,N_3.png,3,N_4.png,4,Y_1.png,1,Y_2.png,2,Y_3.png,3,Y_4.png,4,confidence.png,1,guessing.png,2,respond_yes.png,3,respond_no.png,4,Word 12 of 20,1,Image 4 of 5,1,reveal.png,5
1,testBlock,absent_trial,29,41,yes_1,im0000041.jpg,N_1.png,1,N_2.png,2,N_3.png,3,N_4.png,4,Y_1.png,1,Y_2.png,2,Y_3.png,3,Y_4.png,4,confidence.png,1,guessing.png,2,respond_yes.png,3,respond_no.png,4,Word 13 of 20,1,Image 4 of 5,1,crow,2
1,testBlock,centre_mouse,30,50,reveal,im0000041.jpg,N_1.png,1,N_2.png,2,N_3.png,3,N_4.png,4,Y_1.png,1,Y_2.png,2,Y_3.png,3,Y_4.png,4,confidence.png,1,guessing.png,2,respond_yes.png,3,respond_no.png,4,Word 13 of 20,1,Image 4 of 5,1,reveal.png,5
1,testBlock,absent_trial,31,57,no_4,im0000041.jpg,N_1.png,1,N_2.png,2,N_3.png,3,N_4.png,4,Y_1.png,1,Y_2.png,2,Y_3.png,3,Y_4.png,4,confidence.png,1,guessing.png,2,respond_yes.png,3,respond_no.png,4,Word 14 of 20,1,Image 4 of 5,1,blanket,1
1,testBlock,centre_mouse,32,62,reveal,im0000041.jpg,N_1.png,1,N_2.png,2,N_3.png,3,N_4.png,4,Y_1.png,1,Y_2.png,2,Y_3.png,3,Y_4.png,4,confidence.png,1,guessing.png,2,respond_yes.png,3,respond_no.png,4,Word 14 of 20,1,Image 4 of 5,1,reveal.png,5
1,testBlock,present_trial,33,33,yes_4,im0000041.jpg,N_1.png,1,N_2.png,2,N_3.png,3,N_4.png,4,Y_1.png,1,Y_2.png,2,Y_3.png,3,Y_4.png,4,confidence.png,1,guessing.png,2,respond_yes.png,3,respond_no.png,4,Word 15 of 20,1,Image 4 of 5,1,water,9
1,testBlock,centre_mouse,34,55,reveal,im0000041.jpg,N_1.png,1,N_2.png,2,N_3.png,3,N_4.png,4,Y_1.png,1,Y_2.png,2,Y_3.png,3,Y_4.png,4,confidence.png,1,guessing.png,2,respond_yes.png,3,respond_no.png,4,Word 15 of 20,1,Image 4 of 5,1,reveal.png,5
1,testBlock,present_trial,35,33,yes_4,im0000041.jpg,N_1.png,1,N_2.png,2,N_3.png,3,N_4.png,4,Y_1.png,1,Y_2.png,2,Y_3.png,3,Y_4.png,4,confidence.png,1,guessing.png,2,respond_yes.png,3,respond_no.png,4,Word 16 of 20,1,Image 4 of 5,1,dirt,10
1,testBlock,centre_mouse,36,60,reveal,im0000041.jpg,N_1.png,1,N_2.png,2,N_3.png,3,N_4.png,4,Y_1.png,1,Y_2.png,2,Y_3.png,3,Y_4.png,4,confidence.png,1,guessing.png,2,respond_yes.png,3,respond_no.png,4,Word 16 of 20,1,Image 4 of 5,1,reveal.png,5
1,testBlock,catch_absent_trial,37,52,yes_4,im0000041.jpg,N_1.png,1,N_2.png,2,N_3.png,3,N_4.png,4,Y_1.png,1,Y_2.png,2,Y_3.png,3,Y_4.png,4,confidence.png,1,guessing.png,2,respond_yes.png,3,respond_no.png,4,Word 16 of 20,1,Image 4 of 5,1,PRESS: No 4,4
1,testBlock,centre_mouse,38,41,reveal,im0000041.jpg,N_1.png,1,N_2.png,2,N_3.png,3,N_4.png,4,Y_1.png,1,Y_2.png,2,Y_3.png,3,Y_4.png,4,confidence.png,1,guessing.png,2,respond_yes.png,3,respond_no.png,4,Word 16 of 20,1,Image 4 of 5,1,reveal.png,5
1,testBlock,present_trial,39,53,yes_2,im0000041.jpg,N_1.png,1,N_2.png,2,N_3.png,3,N_4.png,4,Y_1.png,1,Y_2.png,2,Y_3.png,3,Y_4.png,4,confidence.png,1,guessing.png,2,respond_yes.png,3,respond_no.png,4,Word 17 of 20,1,Image 4 of 5,1,fence,6
1,testBlock,centre_mouse,40,47,reveal,im0000041.jpg,N_1.png,1,N_2.png,2,N_3.png,3,N_4.png,4,Y_1.png,1,Y_2.png,2,Y_3.png,3,Y_4.png,4,confidence.png,1,guessing.png,2,respond_yes.png,3,respond_no.png,4,Word 17 of 20,1,Image 4 of 5,1,reveal.png,5
1,testBlock,absent_trial,41,41,no_3,im0000041.jpg,N_1.png,1,N_2.png,2,N_3.png,3,N_4.png,4,Y_1.png,1,Y_2.png,2,Y_3.png,3,Y_4.png,4,confidence.png,1,guessing.png,2,respond_yes.png,3,respond_no.png,4,Word 18 of 20,1,Image 4 of 5,1,happy,34
1,testBlock,centre_mouse,42,66,reveal,im0000041.jpg,N_1.png,1,N_2.png,2,N_3.png,3,N_4.png,4,Y_1.png,1,Y_2.png,2,Y_3.png,3,Y_4.png,4,confidence.png,1,guessing.png,2,respond_yes.png,3,respond_no.png,4,Word 18 of 20,1,Image 4 of 5,1,reveal.png,5
1,testBlock,absent_trial,43,51,no_4,im0000041.jpg,N_1.png,1,N_2.png,2,N_3.png,3,N_4.png,4,Y_1.png,1,Y_2.png,2,Y_3.png,3,Y_4.png,4,confidence.png,1,guessing.png,2,respond_yes.png,3,respond_no.png,4,Word 19 of 20,1,Image 4 of 5,1,stage,37
1,testBlock,centre_mouse,44,47,reveal,im0000041.jpg,N_1.png,1,N_2.png,2,N_3.png,3,N_4.png,4,Y_1.png,1,Y_2.png,2,Y_3.png,3,Y_4.png,4,confidence.png,1,guessing.png,2,respond_yes.png,3,respond_no.png,4,Word 19 of 20,1,Image 4 of 5,1,reveal.png,5
1,testBlock,present_trial,45,38,yes_3,im0000041.jpg,N_1.png,1,N_2.png,2,N_3.png,3,N_4.png,4,Y_1.png,1,Y_2.png,2,Y_3.png,3,Y_4.png,4,confidence.png,1,guessing.png,2,respond_yes.png,3,respond_no.png,4,Word 20 of 20,1,Image 4 of 5,1,farm,4
1,testBlock,centre_mouse,46,41,reveal,im0000041.jpg,N_1.png,1,N_2.png,2,N_3.png,3,N_4.png,4,Y_1.png,1,Y_2.png,2,Y_3.png,3,Y_4.png,4,confidence.png,1,guessing.png,2,respond_yes.png,3,respond_no.png,4,Word 20 of 20,1,Image 4 of 5,1,reveal.png,5
1,testBlock,test,1,1,0,im0000041.jpg,+,1,im0000056.jpg,3,mask2.jpg,2,mask5.jpg,5,mask5.jpg,5,mask1.jpg,1,mask2.jpg,2,0,0,0,0,0,0,0,0,0,0,0,0,0,0,0,0
1,testBlock,centre_mouse,2,43,reveal,im0000041.jpg,N_1.png,1,N_2.png,2,N_3.png,3,N_4.png,4,Y_1.png,1,Y_2.png,2,Y_3.png,3,Y_4.png,4,confidence.png,1,guessing.png,2,respond_yes.png,3,respond_no.png,4,Word 0 of 20,1,Image 5 of 5,1,reveal.png,5
1,testBlock,absent_trial,3,48,no_3,im0000056.jpg,N_1.png,1,N_2.png,2,N_3.png,3,N_4.png,4,Y_1.png,1,Y_2.png,2,Y_3.png,3,Y_4.png,4,confidence.png,1,guessing.png,2,respond_yes.png,3,respond_no.png,4,Word 1 of 20,1,Image 5 of 5,1,arm,19
1,testBlock,centre_mouse,4,29,reveal,im0000056.jpg,N_1.png,1,N_2.png,2,N_3.png,3,N_4.png,4,Y_1.png,1,Y_2.png,2,Y_3.png,3,Y_4.png,4,confidence.png,1,guessing.png,2,respond_yes.png,3,respond_no.png,4,Word 1 of 20,1,Image 5 of 5,1,reveal.png,5
1,testBlock,present_trial,5,36,yes_3,im0000056.jpg,N_1.png,1,N_2.png,2,N_3.png,3,N_4.png,4,Y_1.png,1,Y_2.png,2,Y_3.png,3,Y_4.png,4,confidence.png,1,guessing.png,2,respond_yes.png,3,respond_no.png,4,Word 2 of 20,1,Image 5 of 5,1,building,1
1,testBlock,centre_mouse,6,45,reveal,im0000056.jpg,N_1.png,1,N_2.png,2,N_3.png,3,N_4.png,4,Y_1.png,1,Y_2.png,2,Y_3.png,3,Y_4.png,4,confidence.png,1,guessing.png,2,respond_yes.png,3,respond_no.png,4,Word 2 of 20,1,Image 5 of 5,1,reveal.png,5
1,testBlock,present_trial,7,20,yes_4,im0000056.jpg,N_1.png,1,N_2.png,2,N_3.png,3,N_4.png,4,Y_1.png,1,Y_2.png,2,Y_3.png,3,Y_4.png,4,confidence.png,1,guessing.png,2,respond_yes.png,3,respond_no.png,4,Word 3 of 20,1,Image 5 of 5,1,sky,7
1,testBlock,centre_mouse,8,52,reveal,im0000056.jpg,N_1.png,1,N_2.png,2,N_3.png,3,N_4.png,4,Y_1.png,1,Y_2.png,2,Y_3.png,3,Y_4.png,4,confidence.png,1,guessing.png,2,respond_yes.png,3,respond_no.png,4,Word 3 of 20,1,Image 5 of 5,1,reveal.png,5
1,testBlock,present_trial,9,18,yes_3,im0000056.jpg,N_1.png,1,N_2.png,2,N_3.png,3,N_4.png,4,Y_1.png,1,Y_2.png,2,Y_3.png,3,Y_4.png,4,confidence.png,1,guessing.png,2,respond_yes.png,3,respond_no.png,4,Word 4 of 20,1,Image 5 of 5,1,water,3
1,testBlock,centre_mouse,10,49,reveal,im0000056.jpg,N_1.png,1,N_2.png,2,N_3.png,3,N_4.png,4,Y_1.png,1,Y_2.png,2,Y_3.png,3,Y_4.png,4,confidence.png,1,guessing.png,2,respond_yes.png,3,respond_no.png,4,Word 4 of 20,1,Image 5 of 5,1,reveal.png,5
1,testBlock,present_trial,11,37,no_4,im0000056.jpg,N_1.png,1,N_2.png,2,N_3.png,3,N_4.png,4,Y_1.png,1,Y_2.png,2,Y_3.png,3,Y_4.png,4,confidence.png,1,guessing.png,2,respond_yes.png,3,respond_no.png,4,Word 5 of 20,1,Image 5 of 5,1,build,4
1,testBlock,centre_mouse,12,45,reveal,im0000056.jpg,N_1.png,1,N_2.png,2,N_3.png,3,N_4.png,4,Y_1.png,1,Y_2.png,2,Y_3.png,3,Y_4.png,4,confidence.png,1,guessing.png,2,respond_yes.png,3,respond_no.png,4,Word 5 of 20,1,Image 5 of 5,1,reveal.png,5
1,testBlock,absent_trial,13,34,no_3,im0000056.jpg,N_1.png,1,N_2.png,2,N_3.png,3,N_4.png,4,Y_1.png,1,Y_2.png,2,Y_3.png,3,Y_4.png,4,confidence.png,1,guessing.png,2,respond_yes.png,3,respond_no.png,4,Word 6 of 20,1,Image 5 of 5,1,horse,2
1,testBlock,centre_mouse,14,51,reveal,im0000056.jpg,N_1.png,1,N_2.png,2,N_3.png,3,N_4.png,4,Y_1.png,1,Y_2.png,2,Y_3.png,3,Y_4.png,4,confidence.png,1,guessing.png,2,respond_yes.png,3,respond_no.png,4,Word 6 of 20,1,Image 5 of 5,1,reveal.png,5
1,testBlock,absent_trial,15,45,no_3,im0000056.jpg,N_1.png,1,N_2.png,2,N_3.png,3,N_4.png,4,Y_1.png,1,Y_2.png,2,Y_3.png,3,Y_4.png,4,confidence.png,1,guessing.png,2,respond_yes.png,3,respond_no.png,4,Word 7 of 20,1,Image 5 of 5,1,grass,28
1,testBlock,centre_mouse,16,35,reveal,im0000056.jpg,N_1.png,1,N_2.png,2,N_3.png,3,N_4.png,4,Y_1.png,1,Y_2.png,2,Y_3.png,3,Y_4.png,4,confidence.png,1,guessing.png,2,respond_yes.png,3,respond_no.png,4,Word 7 of 20,1,Image 5 of 5,1,reveal.png,5
1,testBlock,absent_trial,17,44,no_3,im0000056.jpg,N_1.png,1,N_2.png,2,N_3.png,3,N_4.png,4,Y_1.png,1,Y_2.png,2,Y_3.png,3,Y_4.png,4,confidence.png,1,guessing.png,2,respond_yes.png,3,respond_no.png,4,Word 8 of 20,1,Image 5 of 5,1,black,16
1,testBlock,centre_mouse,18,58,reveal,im0000056.jpg,N_1.png,1,N_2.png,2,N_3.png,3,N_4.png,4,Y_1.png,1,Y_2.png,2,Y_3.png,3,Y_4.png,4,confidence.png,1,guessing.png,2,respond_yes.png,3,respond_no.png,4,Word 8 of 20,1,Image 5 of 5,1,reveal.png,5
1,testBlock,catch_absent_trial,19,32,no_4,im0000056.jpg,N_1.png,1,N_2.png,2,N_3.png,3,N_4.png,4,Y_1.png,1,Y_2.png,2,Y_3.png,3,Y_4.png,4,confidence.png,1,guessing.png,2,respond_yes.png,3,respond_no.png,4,Word 8 of 20,1,Image 5 of 5,1,PRESS: No 1,1
1,testBlock,centre_mouse,20,23,reveal,im0000056.jpg,N_1.png,1,N_2.png,2,N_3.png,3,N_4.png,4,Y_1.png,1,Y_2.png,2,Y_3.png,3,Y_4.png,4,confidence.png,1,guessing.png,2,respond_yes.png,3,respond_no.png,4,Word 8 of 20,1,Image 5 of 5,1,reveal.png,5
1,testBlock,present_trial,21,51,no_3,im0000056.jpg,N_1.png,1,N_2.png,2,N_3.png,3,N_4.png,4,Y_1.png,1,Y_2.png,2,Y_3.png,3,Y_4.png,4,confidence.png,1,guessing.png,2,respond_yes.png,3,respond_no.png,4,Word 9 of 20,1,Image 5 of 5,1,tree,8
1,testBlock,centre_mouse,22,32,reveal,im0000056.jpg,N_1.png,1,N_2.png,2,N_3.png,3,N_4.png,4,Y_1.png,1,Y_2.png,2,Y_3.png,3,Y_4.png,4,confidence.png,1,guessing.png,2,respond_yes.png,3,respond_no.png,4,Word 9 of 20,1,Image 5 of 5,1,reveal.png,5
1,testBlock,absent_trial,23,43,no_3,im0000056.jpg,N_1.png,1,N_2.png,2,N_3.png,3,N_4.png,4,Y_1.png,1,Y_2.png,2,Y_3.png,3,Y_4.png,4,confidence.png,1,guessing.png,2,respond_yes.png,3,respond_no.png,4,Word 10 of 20,1,Image 5 of 5,1,sunlight,9
1,testBlock,centre_mouse,24,50,reveal,im0000056.jpg,N_1.png,1,N_2.png,2,N_3.png,3,N_4.png,4,Y_1.png,1,Y_2.png,2,Y_3.png,3,Y_4.png,4,confidence.png,1,guessing.png,2,respond_yes.png,3,respond_no.png,4,Word 10 of 20,1,Image 5 of 5,1,reveal.png,5
1,testBlock,absent_trial,25,42,yes_2,im0000056.jpg,N_1.png,1,N_2.png,2,N_3.png,3,N_4.png,4,Y_1.png,1,Y_2.png,2,Y_3.png,3,Y_4.png,4,confidence.png,1,guessing.png,2,respond_yes.png,3,respond_no.png,4,Word 11 of 20,1,Image 5 of 5,1,shape,12
1,testBlock,centre_mouse,26,58,reveal,im0000056.jpg,N_1.png,1,N_2.png,2,N_3.png,3,N_4.png,4,Y_1.png,1,Y_2.png,2,Y_3.png,3,Y_4.png,4,confidence.png,1,guessing.png,2,respond_yes.png,3,respond_no.png,4,Word 11 of 20,1,Image 5 of 5,1,reveal.png,5
1,testBlock,present_trial,27,39,no_1,im0000056.jpg,N_1.png,1,N_2.png,2,N_3.png,3,N_4.png,4,Y_1.png,1,Y_2.png,2,Y_3.png,3,Y_4.png,4,confidence.png,1,guessing.png,2,respond_yes.png,3,respond_no.png,4,Word 12 of 20,1,Image 5 of 5,1,daytime,9
1,testBlock,centre_mouse,28,43,reveal,im0000056.jpg,N_1.png,1,N_2.png,2,N_3.png,3,N_4.png,4,Y_1.png,1,Y_2.png,2,Y_3.png,3,Y_4.png,4,confidence.png,1,guessing.png,2,respond_yes.png,3,respond_no.png,4,Word 12 of 20,1,Image 5 of 5,1,reveal.png,5
1,testBlock,present_trial,29,48,yes_4,im0000056.jpg,N_1.png,1,N_2.png,2,N_3.png,3,N_4.png,4,Y_1.png,1,Y_2.png,2,Y_3.png,3,Y_4.png,4,confidence.png,1,guessing.png,2,respond_yes.png,3,respond_no.png,4,Word 13 of 20,1,Image 5 of 5,1,city,2
1,testBlock,centre_mouse,30,52,reveal,im0000056.jpg,N_1.png,1,N_2.png,2,N_3.png,3,N_4.png,4,Y_1.png,1,Y_2.png,2,Y_3.png,3,Y_4.png,4,confidence.png,1,guessing.png,2,respond_yes.png,3,respond_no.png,4,Word 13 of 20,1,Image 5 of 5,1,reveal.png,5
1,testBlock,absent_trial,31,43,no_4,im0000056.jpg,N_1.png,1,N_2.png,2,N_3.png,3,N_4.png,4,Y_1.png,1,Y_2.png,2,Y_3.png,3,Y_4.png,4,confidence.png,1,guessing.png,2,respond_yes.png,3,respond_no.png,4,Word 14 of 20,1,Image 5 of 5,1,farmer,17
1,testBlock,centre_mouse,32,47,reveal,im0000056.jpg,N_1.png,1,N_2.png,2,N_3.png,3,N_4.png,4,Y_1.png,1,Y_2.png,2,Y_3.png,3,Y_4.png,4,confidence.png,1,guessing.png,2,respond_yes.png,3,respond_no.png,4,Word 14 of 20,1,Image 5 of 5,1,reveal.png,5
1,testBlock,present_trial,33,49,no_1,im0000056.jpg,N_1.png,1,N_2.png,2,N_3.png,3,N_4.png,4,Y_1.png,1,Y_2.png,2,Y_3.png,3,Y_4.png,4,confidence.png,1,guessing.png,2,respond_yes.png,3,respond_no.png,4,Word 15 of 20,1,Image 5 of 5,1,sea,6
1,testBlock,centre_mouse,34,47,reveal,im0000056.jpg,N_1.png,1,N_2.png,2,N_3.png,3,N_4.png,4,Y_1.png,1,Y_2.png,2,Y_3.png,3,Y_4.png,4,confidence.png,1,guessing.png,2,respond_yes.png,3,respond_no.png,4,Word 15 of 20,1,Image 5 of 5,1,reveal.png,5
1,testBlock,absent_trial,35,56,no_4,im0000056.jpg,N_1.png,1,N_2.png,2,N_3.png,3,N_4.png,4,Y_1.png,1,Y_2.png,2,Y_3.png,3,Y_4.png,4,confidence.png,1,guessing.png,2,respond_yes.png,3,respond_no.png,4,Word 16 of 20,1,Image 5 of 5,1,stem,40
1,testBlock,centre_mouse,36,30,reveal,im0000056.jpg,N_1.png,1,N_2.png,2,N_3.png,3,N_4.png,4,Y_1.png,1,Y_2.png,2,Y_3.png,3,Y_4.png,4,confidence.png,1,guessing.png,2,respond_yes.png,3,respond_no.png,4,Word 16 of 20,1,Image 5 of 5,1,reveal.png,5
1,testBlock,catch_present_trial,37,39,no_3,im0000056.jpg,N_1.png,1,N_2.png,2,N_3.png,3,N_4.png,4,Y_1.png,1,Y_2.png,2,Y_3.png,3,Y_4.png,4,confidence.png,1,guessing.png,2,respond_yes.png,3,respond_no.png,4,Word 16 of 20,1,Image 5 of 5,1,PRESS: Yes 3,3
1,testBlock,centre_mouse,38,46,reveal,im0000056.jpg,N_1.png,1,N_2.png,2,N_3.png,3,N_4.png,4,Y_1.png,1,Y_2.png,2,Y_3.png,3,Y_4.png,4,confidence.png,1,guessing.png,2,respond_yes.png,3,respond_no.png,4,Word 16 of 20,1,Image 5 of 5,1,reveal.png,5
1,testBlock,absent_trial,39,35,yes_3,im0000056.jpg,N_1.png,1,N_2.png,2,N_3.png,3,N_4.png,4,Y_1.png,1,Y_2.png,2,Y_3.png,3,Y_4.png,4,confidence.png,1,guessing.png,2,respond_yes.png,3,respond_no.png,4,Word 17 of 20,1,Image 5 of 5,1,outside,22
1,testBlock,centre_mouse,40,35,reveal,im0000056.jpg,N_1.png,1,N_2.png,2,N_3.png,3,N_4.png,4,Y_1.png,1,Y_2.png,2,Y_3.png,3,Y_4.png,4,confidence.png,1,guessing.png,2,respond_yes.png,3,respond_no.png,4,Word 17 of 20,1,Image 5 of 5,1,reveal.png,5
1,testBlock,present_trial,41,49,no_3,im0000056.jpg,N_1.png,1,N_2.png,2,N_3.png,3,N_4.png,4,Y_1.png,1,Y_2.png,2,Y_3.png,3,Y_4.png,4,confidence.png,1,guessing.png,2,respond_yes.png,3,respond_no.png,4,Word 18 of 20,1,Image 5 of 5,1,people,5
1,testBlock,centre_mouse,42,41,reveal,im0000056.jpg,N_1.png,1,N_2.png,2,N_3.png,3,N_4.png,4,Y_1.png,1,Y_2.png,2,Y_3.png,3,Y_4.png,4,confidence.png,1,guessing.png,2,respond_yes.png,3,respond_no.png,4,Word 18 of 20,1,Image 5 of 5,1,reveal.png,5
1,testBlock,absent_trial,43,52,no_3,im0000056.jpg,N_1.png,1,N_2.png,2,N_3.png,3,N_4.png,4,Y_1.png,1,Y_2.png,2,Y_3.png,3,Y_4.png,4,confidence.png,1,guessing.png,2,respond_yes.png,3,respond_no.png,4,Word 19 of 20,1,Image 5 of 5,1,beautiful,21
1,testBlock,centre_mouse,44,32,reveal,im0000056.jpg,N_1.png,1,N_2.png,2,N_3.png,3,N_4.png,4,Y_1.png,1,Y_2.png,2,Y_3.png,3,Y_4.png,4,confidence.png,1,guessing.png,2,respond_yes.png,3,respond_no.png,4,Word 19 of 20,1,Image 5 of 5,1,reveal.png,5
1,testBlock,present_trial,45,56,no_3,im0000056.jpg,N_1.png,1,N_2.png,2,N_3.png,3,N_4.png,4,Y_1.png,1,Y_2.png,2,Y_3.png,3,Y_4.png,4,confidence.png,1,guessing.png,2,respond_yes.png,3,respond_no.png,4,Word 20 of 20,1,Image 5 of 5,1,skyline,10
1,testBlock,centre_mouse,46,49,reveal,im0000056.jpg,N_1.png,1,N_2.png,2,N_3.png,3,N_4.png,4,Y_1.png,1,Y_2.png,2,Y_3.png,3,Y_4.png,4,confidence.png,1,guessing.png,2,respond_yes.png,3,respond_no.png,4,Word 20 of 20,1,Image 5 of 5,1,reveal.png,5
2,practiceBlock,practice,1,1,0,Picture1.jpg,+,1,Picture3.jpg,3,mask3.jpg,3,mask3.jpg,3,mask4.jpg,4,mask4.jpg,4,mask3.jpg,3,0,0,0,0,0,0,0,0,0,0,0,0,0,0,0,0
2,practiceBlock,centre_mouse,2,35,reveal,Picture1.jpg,N_1.png,1,N_2.png,2,N_3.png,3,N_4.png,4,Y_1.png,1,Y_2.png,2,Y_3.png,3,Y_4.png,4,confidence.png,1,guessing.png,2,respond_yes.png,3,respond_no.png,4,Word 0 of 12,1,Image 1 of 3,1,reveal.png,5
2,practiceBlock,practice_absent_trial,3,40,no_4,Picture3.jpg,N_1.png,1,N_2.png,2,N_3.png,3,N_4.png,4,Y_1.png,1,Y_2.png,2,Y_3.png,3,Y_4.png,4,confidence.png,1,guessing.png,2,respond_yes.png,3,respond_no.png,4,Word 1 of 12,1,Image 1 of 3,1,zoomed-in,1
2,practiceBlock,centre_mouse,4,57,reveal,Picture3.jpg,N_1.png,1,N_2.png,2,N_3.png,3,N_4.png,4,Y_1.png,1,Y_2.png,2,Y_3.png,3,Y_4.png,4,confidence.png,1,guessing.png,2,respond_yes.png,3,respond_no.png,4,Word 1 of 12,1,Image 1 of 3,1,reveal.png,5
2,practiceBlock,practice_present_trial,5,29,no_1,Picture3.jpg,N_1.png,1,N_2.png,2,N_3.png,3,N_4.png,4,Y_1.png,1,Y_2.png,2,Y_3.png,3,Y_4.png,4,confidence.png,1,guessing.png,2,respond_yes.png,3,respond_no.png,4,Word 2 of 12,1,Image 1 of 3,1,cloud,3
2,practiceBlock,centre_mouse,6,41,reveal,Picture3.jpg,N_1.png,1,N_2.png,2,N_3.png,3,N_4.png,4,Y_1.png,1,Y_2.png,2,Y_3.png,3,Y_4.png,4,confidence.png,1,guessing.png,2,respond_yes.png,3,respond_no.png,4,Word 2 of 12,1,Image 1 of 3,1,reveal.png,5
2,practiceBlock,practice_present_trial,7,69,yes_2,Picture3.jpg,N_1.png,1,N_2.png,2,N_3.png,3,N_4.png,4,Y_1.png,1,Y_2.png,2,Y_3.png,3,Y_4.png,4,confidence.png,1,guessing.png,2,respond_yes.png,3,respond_no.png,4,Word 3 of 12,1,Image 1 of 3,1,sky,6
2,practiceBlock,centre_mouse,8,47,reveal,Picture3.jpg,N_1.png,1,N_2.png,2,N_3.png,3,N_4.png,4,Y_1.png,1,Y_2.png,2,Y_3.png,3,Y_4.png,4,confidence.png,1,guessing.png,2,respond_yes.png,3,respond_no.png,4,Word 3 of 12,1,Image 1 of 3,1,reveal.png,5
2,practiceBlock,practice_absent_trial,9,46,no_4,Picture3.jpg,N_1.png,1,N_2.png,2,N_3.png,3,N_4.png,4,Y_1.png,1,Y_2.png,2,Y_3.png,3,Y_4.png,4,confidence.png,1,guessing.png,2,respond_yes.png,3,respond_no.png,4,Word 4 of 12,1,Image 1 of 3,1,old,4
2,practiceBlock,centre_mouse,10,52,reveal,Picture3.jpg,N_1.png,1,N_2.png,2,N_3.png,3,N_4.png,4,Y_1.png,1,Y_2.png,2,Y_3.png,3,Y_4.png,4,confidence.png,1,guessing.png,2,respond_yes.png,3,respond_no.png,4,Word 4 of 12,1,Image 1 of 3,1,reveal.png,5
2,practiceBlock,practice_absent_trial,11,32,no_3,Picture3.jpg,N_1.png,1,N_2.png,2,N_3.png,3,N_4.png,4,Y_1.png,1,Y_2.png,2,Y_3.png,3,Y_4.png,4,confidence.png,1,guessing.png,2,respond_yes.png,3,respond_no.png,4,Word 5 of 12,1,Image 1 of 3,1,stand,5
2,practiceBlock,centre_mouse,12,42,reveal,Picture3.jpg,N_1.png,1,N_2.png,2,N_3.png,3,N_4.png,4,Y_1.png,1,Y_2.png,2,Y_3.png,3,Y_4.png,4,confidence.png,1,guessing.png,2,respond_yes.png,3,respond_no.png,4,Word 5 of 12,1,Image 1 of 3,1,reveal.png,5
2,practiceBlock,practice_present_trial,13,27,yes_1,Picture3.jpg,N_1.png,1,N_2.png,2,N_3.png,3,N_4.png,4,Y_1.png,1,Y_2.png,2,Y_3.png,3,Y_4.png,4,confidence.png,1,guessing.png,2,respond_yes.png,3,respond_no.png,4,Word 6 of 12,1,Image 1 of 3,1,mountain,1
2,practiceBlock,centre_mouse,14,38,reveal,Picture3.jpg,N_1.png,1,N_2.png,2,N_3.png,3,N_4.png,4,Y_1.png,1,Y_2.png,2,Y_3.png,3,Y_4.png,4,confidence.png,1,guessing.png,2,respond_yes.png,3,respond_no.png,4,Word 6 of 12,1,Image 1 of 3,1,reveal.png,5
2,practiceBlock,practice_absent_trial,15,40,yes_3,Picture3.jpg,N_1.png,1,N_2.png,2,N_3.png,3,N_4.png,4,Y_1.png,1,Y_2.png,2,Y_3.png,3,Y_4.png,4,confidence.png,1,guessing.png,2,respond_yes.png,3,respond_no.png,4,Word 7 of 12,1,Image 1 of 3,1,blue-hat,6
2,practiceBlock,centre_mouse,16,64,reveal,Picture3.jpg,N_1.png,1,N_2.png,2,N_3.png,3,N_4.png,4,Y_1.png,1,Y_2.png,2,Y_3.png,3,Y_4.png,4,confidence.png,1,guessing.png,2,respond_yes.png,3,respond_no.png,4,Word 7 of 12,1,Image 1 of 3,1,reveal.png,5
2,practiceBlock,practice_absent_trial,17,52,no_4,Picture3.jpg,N_1.png,1,N_2.png,2,N_3.png,3,N_4.png,4,Y_1.png,1,Y_2.png,2,Y_3.png,3,Y_4.png,4,confidence.png,1,guessing.png,2,respond_yes.png,3,respond_no.png,4,Word 8 of 12,1,Image 1 of 3,1,horse,2
2,practiceBlock,centre_mouse,18,26,reveal,Picture3.jpg,N_1.png,1,N_2.png,2,N_3.png,3,N_4.png,4,Y_1.png,1,Y_2.png,2,Y_3.png,3,Y_4.png,4,confidence.png,1,guessing.png,2,respond_yes.png,3,respond_no.png,4,Word 8 of 12,1,Image 1 of 3,1,reveal.png,5
2,practiceBlock,practice_present_trial,19,38,yes_3,Picture3.jpg,N_1.png,1,N_2.png,2,N_3.png,3,N_4.png,4,Y_1.png,1,Y_2.png,2,Y_3.png,3,Y_4.png,4,confidence.png,1,guessing.png,2,respond_yes.png,3,respond_no.png,4,Word 9 of 12,1,Image 1 of 3,1,landscape,4
2,practiceBlock,centre_mouse,20,37,reveal,Picture3.jpg,N_1.png,1,N_2.png,2,N_3.png,3,N_4.png,4,Y_1.png,1,Y_2.png,2,Y_3.png,3,Y_4.png,4,confidence.png,1,guessing.png,2,respond_yes.png,3,respond_no.png,4,Word 9 of 12,1,Image 1 of 3,1,reveal.png,5
2,practiceBlock,practice_absent_trial,21,41,no_3,Picture3.jpg,N_1.png,1,N_2.png,2,N_3.png,3,N_4.png,4,Y_1.png,1,Y_2.png,2,Y_3.png,3,Y_4.png,4,confidence.png,1,guessing.png,2,respond_yes.png,3,respond_no.png,4,Word 10 of 12,1,Image 1 of 3,1,coat,3
2,practiceBlock,centre_mouse,22,31,reveal,Picture3.jpg,N_1.png,1,N_2.png,2,N_3.png,3,N_4.png,4,Y_1.png,1,Y_2.png,2,Y_3.png,3,Y_4.png,4,confidence.png,1,guessing.png,2,respond_yes.png,3,respond_no.png,4,Word 10 of 12,1,Image 1 of 3,1,reveal.png,5
2,practiceBlock,practice_present_trial,23,30,yes_2,Picture3.jpg,N_1.png,1,N_2.png,2,N_3.png,3,N_4.png,4,Y_1.png,1,Y_2.png,2,Y_3.png,3,Y_4.png,4,confidence.png,1,guessing.png,2,respond_yes.png,3,respond_no.png,4,Word 11 of 12,1,Image 1 of 3,1,sun,2
2,practiceBlock,centre_mouse,24,52,reveal,Picture3.jpg,N_1.png,1,N_2.png,2,N_3.png,3,N_4.png,4,Y_1.png,1,Y_2.png,2,Y_3.png,3,Y_4.png,4,confidence.png,1,guessing.png,2,respond_yes.png,3,respond_no.png,4,Word 11 of 12,1,Image 1 of 3,1,reveal.png,5
2,practiceBlock,practice_present_trial,25,47,yes_1,Picture3.jpg,N_1.png,1,N_2.png,2,N_3.png,3,N_4.png,4,Y_1.png,1,Y_2.png,2,Y_3.png,3,Y_4.png,4,confidence.png,1,guessing.png,2,respond_yes.png,3,respond_no.png,4,Word 12 of 12,1,Image 1 of 3,1,blue,5
2,practiceBlock,centre_mouse,26,32,reveal,Picture3.jpg,N_1.png,1,N_2.png,2,N_3.png,3,N_4.png,4,Y_1.png,1,Y_2.png,2,Y_3.png,3,Y_4.png,4,confidence.png,1,guessing.png,2,respond_yes.png,3,respond_no.png,4,Word 12 of 12,1,Image 1 of 3,1,reveal.png,5
2,practiceBlock,catch_present_trial,27,54,yes_4,Picture3.jpg,N_1.png,1,N_2.png,2,N_3.png,3,N_4.png,4,Y_1.png,1,Y_2.png,2,Y_3.png,3,Y_4.png,4,confidence.png,1,guessing.png,2,respond_yes.png,3,respond_no.png,4,Word 12 of 12,1,Image 1 of 3,1,PRESS: Yes 3,3
2,practiceBlock,centre_mouse,28,35,reveal,Picture3.jpg,N_1.png,1,N_2.png,2,N_3.png,3,N_4.png,4,Y_1.png,1,Y_2.png,2,Y_3.png,3,Y_4.png,4,confidence.png,1,guessing.png,2,respond_yes.png,3,respond_no.png,4,Word 12 of 12,1,Image 1 of 3,1,reveal.png,5
2,practiceBlock,catch_absent_trial,29,35,no_1,Picture3.jpg,N_1.png,1,N_2.png,2,N_3.png,3,N_4.png,4,Y_1.png,1,Y_2.png,2,Y_3.png,3,Y_4.png,4,confidence.png,1,guessing.png,2,respond_yes.png,3,respond_no.png,4,Word 12 of 12,1,Image 1 of 3,1,PRESS: No 4,4
2,practiceBlock,centre_mouse,30,45,reveal,Picture3.jpg,N_1.png,1,N_2.png,2,N_3.png,3,N_4.png,4,Y_1.png,1,Y_2.png,2,Y_3.png,3,Y_4.png,4,confidence.png,1,guessing.png,2,respond_yes.png,3,respond_no.png,4,Word 12 of 12,1,Image 1 of 3,1,reveal.png,5
2,practiceBlock,practice,1,1,0,Picture3.jpg,+,1,Picture2.jpg,2,mask5.jpg,5,mask4.jpg,4,mask5.jpg,5,mask2.jpg,2,mask1.jpg,1,0,0,0,0,0,0,0,0,0,0,0,0,0,0,0,0
2,practiceBlock,centre_mouse,2,47,reveal,Picture3.jpg,N_1.png,1,N_2.png,2,N_3.png,3,N_4.png,4,Y_1.png,1,Y_2.png,2,Y_3.png,3,Y_4.png,4,confidence.png,1,guessing.png,2,respond_yes.png,3,respond_no.png,4,Word 0 of 12,1,Image 2 of 3,1,reveal.png,5
2,practiceBlock,practice_absent_trial,3,35,no_4,Picture2.jpg,N_1.png,1,N_2.png,2,N_3.png,3,N_4.png,4,Y_1.png,1,Y_2.png,2,Y_3.png,3,Y_4.png,4,confidence.png,1,guessing.png,2,respond_yes.png,3,respond_no.png,4,Word 1 of 12,1,Image 2 of 3,1,beauty,2
2,practiceBlock,centre_mouse,4,54,reveal,Picture2.jpg,N_1.png,1,N_2.png,2,N_3.png,3,N_4.png,4,Y_1.png,1,Y_2.png,2,Y_3.png,3,Y_4.png,4,confidence.png,1,guessing.png,2,respond_yes.png,3,respond_no.png,4,Word 1 of 12,1,Image 2 of 3,1,reveal.png,5
2,practiceBlock,practice_absent_trial,5,47,no_4,Picture2.jpg,N_1.png,1,N_2.png,2,N_3.png,3,N_4.png,4,Y_1.png,1,Y_2.png,2,Y_3.png,3,Y_4.png,4,confidence.png,1,guessing.png,2,respond_yes.png,3,respond_no.png,4,Word 2 of 12,1,Image 2 of 3,1,man,6
2,practiceBlock,centre_mouse,6,60,reveal,Picture2.jpg,N_1.png,1,N_2.png,2,N_3.png,3,N_4.png,4,Y_1.png,1,Y_2.png,2,Y_3.png,3,Y_4.png,4,confidence.png,1,guessing.png,2,respond_yes.png,3,respond_no.png,4,Word 2 of 12,1,Image 2 of 3,1,reveal.png,5
2,practiceBlock,practice_present_trial,7,39,yes_3,Picture2.jpg,N_1.png,1,N_2.png,2,N_3.png,3,N_4.png,4,Y_1.png,1,Y_2.png,2,Y_3.png,3,Y_4.png,4,confidence.png,1,guessing.png,2,respond_yes.png,3,respond_no.png,4,Word 3 of 12,1,Image 2 of 3,1,eyes,3
2,practiceBlock,centre_mouse,8,35,reveal,Picture2.jpg,N_1.png,1,N_2.png,2,N_3.png,3,N_4.png,4,Y_1.png,1,Y_2.png,2,Y_3.png,3,Y_4.png,4,confidence.png,1,guessing.png,2,respond_yes.png,3,respond_no.png,4,Word 3 of 12,1,Image 2 of 3,1,reveal.png,5
2,practiceBlock,practice_present_trial,9,43,yes_1,Picture2.jpg,N_1.png,1,N_2.png,2,N_3.png,3,N_4.png,4,Y_1.png,1,Y_2.png,2,Y_3.png,3,Y_4.png,4,confidence.png,1,guessing.png,2,respond_yes.png,3,respond_no.png,4,Word 4 of 12,1,Image 2 of 3,1,happy,5
2,practiceBlock,centre_mouse,10,56,reveal,Picture2.jpg,N_1.png,1,N_2.png,2,N_3.png,3,N_4.png,4,Y_1.png,1,Y_2.png,2,Y_3.png,3,Y_4.png,4,confidence.png,1,guessing.png,2,respond_yes.png,3,respond_no.png,4,Word 4 of 12,1,Image 2 of 3,1,reveal.png,5
2,practiceBlock,practice_present_trial,11,49,no_3,Picture2.jpg,N_1.png,1,N_2.png,2,N_3.png,3,N_4.png,4,Y_1.png,1,Y_2.png,2,Y_3.png,3,Y_4.png,4,confidence.png,1,guessing.png,2,respond_yes.png,3,respond_no.png,4,Word 5 of 12,1,Image 2 of 3,1,yellow,2
2,practiceBlock,centre_mouse,12,42,reveal,Picture2.jpg,N_1.png,1,N_2.png,2,N_3.png,3,N_4.png,4,Y_1.png,1,Y_2.png,2,Y_3.png,3,Y_4.png,4,confidence.png,1,guessing.png,2,respond_yes.png,3,respond_no.png,4,Word 5 of 12,1,Image 2 of 3,1,reveal.png,5
2,practiceBlock,practice_absent_trial,13,49,no_2,Picture2.jpg,N_1.png,1,N_2.png,2,N_3.png,3,N_4.png,4,Y_1.png,1,Y_2.png,2,Y_3.png,3,Y_4.png,4,confidence.png,1,guessing.png,2,respond_yes.png,3,respond_no.png,4,Word 6 of 12,1,Image 2 of 3,1,anxious,5
2,practiceBlock,centre_mouse,14,39,reveal,Picture2.jpg,N_1.png,1,N_2.png,2,N_3.png,3,N_4.png,4,Y_1.png,1,Y_2.png,2,Y_3.png,3,Y_4.png,4,confidence.png,1,guessing.png,2,respond_yes.png,3,respond_no.png,4,Word 6 of 12,1,Image 2 of 3,1,reveal.png,5
2,practiceBlock,practice_absent_trial,15,43,no_4,Picture2.jpg,N_1.png,1,N_2.png,2,N_3.png,3,N_4.png,4,Y_1.png,1,Y_2.png,2,Y_3.png,3,Y_4.png,4,confidence.png,1,guessing.png,2,respond_yes.png,3,respond_no.png,4,Word 7 of 12,1,Image 2 of 3,1,metal,3
2,practiceBlock,centre_mouse,16,53,reveal,Picture2.jpg,N_1.png,1,N_2.png,2,N_3.png,3,N_4.png,4,Y_1.png,1,Y_2.png,2,Y_3.png,3,Y_4.png,4,confidence.png,1,guessing.png,2,respond_yes.png,3,respond_no.png,4,Word 7 of 12,1,Image 2 of 3,1,reveal.png,5
2,practiceBlock,practice_absent_trial,17,41,yes_2,Picture2.jpg,N_1.png,1,N_2.png,2,N_3.png,3,N_4.png,4,Y_1.png,1,Y_2.png,2,Y_3.png,3,Y_4.png,4,confidence.png,1,guessing.png,2,respond_yes.png,3,respond_no.png,4,Word 8 of 12,1,Image 2 of 3,1,walk,1
2,practiceBlock,centre_mouse,18,60,reveal,Picture2.jpg,N_1.png,1,N_2.png,2,N_3.png,3,N_4.png,4,Y_1.png,1,Y_2.png,2,Y_3.png,3,Y_4.png,4,confidence.png,1,guessing.png,2,respond_yes.png,3,respond_no.png,4,Word 8 of 12,1,Image 2 of 3,1,reveal.png,5
2,practiceBlock,practice_present_trial,19,40,no_4,Picture2.jpg,N_1.png,1,N_2.png,2,N_3.png,3,N_4.png,4,Y_1.png,1,Y_2.png,2,Y_3.png,3,Y_4.png,4,confidence.png,1,guessing.png,2,respond_yes.png,3,respond_no.png,4,Word 9 of 12,1,Image 2 of 3,1,face,1
2,practiceBlock,centre_mouse,20,51,reveal,Picture2.jpg,N_1.png,1,N_2.png,2,N_3.png,3,N_4.png,4,Y_1.png,1,Y_2.png,2,Y_3.png,3,Y_4.png,4,confidence.png,1,guessing.png,2,respond_yes.png,3,respond_no.png,4,Word 9 of 12,1,Image 2 of 3,1,reveal.png,5
2,practiceBlock,practice_absent_trial,21,55,yes_3,Picture2.jpg,N_1.png,1,N_2.png,2,N_3.png,3,N_4.png,4,Y_1.png,1,Y_2.png,2,Y_3.png,3,Y_4.png,4,confidence.png,1,guessing.png,2,respond_yes.png,3,respond_no.png,4,Word 10 of 12,1,Image 2 of 3,1,grey-clothes,4
2,practiceBlock,centre_mouse,22,52,reveal,Picture2.jpg,N_1.png,1,N_2.png,2,N_3.png,3,N_4.png,4,Y_1.png,1,Y_2.png,2,Y_3.png,3,Y_4.png,4,confidence.png,1,guessing.png,2,respond_yes.png,3,respond_no.png,4,Word 10 of 12,1,Image 2 of 3,1,reveal.png,5
2,practiceBlock,practice_present_trial,23,46,no_3,Picture2.jpg,N_1.png,1,N_2.png,2,N_3.png,3,N_4.png,4,Y_1.png,1,Y_2.png,2,Y_3.png,3,Y_4.png,4,confidence.png,1,guessing.png,2,respond_yes.png,3,respond_no.png,4,Word 11 of 12,1,Image 2 of 3,1,emoji,6
2,practiceBlock,centre_mouse,24,51,reveal,Picture2.jpg,N_1.png,1,N_2.png,2,N_3.png,3,N_4.png,4,Y_1.png,1,Y_2.png,2,Y_3.png,3,Y_4.png,4,confidence.png,1,guessing.png,2,respond_yes.png,3,respond_no.png,4,Word 11 of 12,1,Image 2 of 3,1,reveal.png,5
2,practiceBlock,practice_present_trial,25,37,yes_1,Picture2.jpg,N_1.png,1,N_2.png,2,N_3.png,3,N_4.png,4,Y_1.png,1,Y_2.png,2,Y_3.png,3,Y_4.png,4,confidence.png,1,guessing.png,2,respond_yes.png,3,respond_no.png,4,Word 12 of 12,1,Image 2 of 3,1,smile,4
2,practiceBlock,centre_mouse,26,39,reveal,Picture2.jpg,N_1.png,1,N_2.png,2,N_3.png,3,N_4.png,4,Y_1.png,1,Y_2.png,2,Y_3.png,3,Y_4.png,4,confidence.png,1,guessing.png,2,respond_yes.png,3,respond_no.png,4,Word 12 of 12,1,Image 2 of 3,1,reveal.png,5
2,practiceBlock,catch_present_trial,27,56,yes_1,Picture2.jpg,N_1.png,1,N_2.png,2,N_3.png,3,N_4.png,4,Y_1.png,1,Y_2.png,2,Y_3.png,3,Y_4.png,4,confidence.png,1,guessing.png,2,respond_yes.png,3,respond_no.png,4,Word 12 of 12,1,Image 2 of 3,1,PRESS: Yes 1,1
2,practiceBlock,centre_mouse,28,34,reveal,Picture2.jpg,N_1.png,1,N_2.png,2,N_3.png,3,N_4.png,4,Y_1.png,1,Y_2.png,2,Y_3.png,3,Y_4.png,4,confidence.png,1,guessing.png,2,respond_yes.png,3,respond_no.png,4,Word 12 of 12,1,Image 2 of 3,1,reveal.png,5
2,practiceBlock,catch_absent_trial,29,63,yes_2,Picture2.jpg,N_1.png,1,N_2.png,2,N_3.png,3,N_4.png,4,Y_1.png,1,Y_2.png,2,Y_3.png,3,Y_4.png,4,confidence.png,1,guessing.png,2,respond_yes.png,3,respond_no.png,4,Word 12 of 12,1,Image 2 of 3,1,PRESS: No 3,3
2,practiceBlock,centre_mouse,30,39,reveal,Picture2.jpg,N_1.png,1,N_2.png,2,N_3.png,3,N_4.png,4,Y_1.png,1,Y_2.png,2,Y_3.png,3,Y_4.png,4,confidence.png,1,guessing.png,2,respond_yes.png,3,respond_no.png,4,Word 12 of 12,1,Image 2 of 3,1,reveal.png,5
2,practiceBlock,practice,1,1,0,Picture2.jpg,+,1,Picture1.jpg,1,mask1.jpg,1,mask1.jpg,1,mask2.jpg,2,mask1.jpg,1,mask2.jpg,2,0,0,0,0,0,0,0,0,0,0,0,0,0,0,0,0
2,practiceBlock,centre_mouse,2,41,reveal,Picture2.jpg,N_1.png,1,N_2.png,2,N_3.png,3,N_4.png,4,Y_1.png,1,Y_2.png,2,Y_3.png,3,Y_4.png,4,confidence.png,1,guessing.png,2,respond_yes.png,3,respond_no.png,4,Word 0 of 12,1,Image 3 of 3,1,reveal.png,5
2,practiceBlock,practice_absent_trial,3,26,no_4,Picture1.jpg,N_1.png,1,N_2.png,2,N_3.png,3,N_4.png,4,Y_1.png,1,Y_2.png,2,Y_3.png,3,Y_4.png,4,confidence.png,1,guessing.png,2,respond_yes.png,3,respond_no.png,4,Word 1 of 12,1,Image 3 of 3,1,crow,2
2,practiceBlock,centre_mouse,4,29,reveal,Picture1.jpg,N_1.png,1,N_2.png,2,N_3.png,3,N_4.png,4,Y_1.png,1,Y_2.png,2,Y_3.png,3,Y_4.png,4,confidence.png,1,guessing.png,2,respond_yes.png,3,respond_no.png,4,Word 1 of 12,1,Image 3 of 3,1,reveal.png,5
2,practiceBlock,practice_present_trial,5,37,yes_1,Picture1.jpg,N_1.png,1,N_2.png,2,N_3.png,3,N_4.png,4,Y_1.png,1,Y_2.png,2,Y_3.png,3,Y_4.png,4,confidence.png,1,guessing.png,2,respond_yes.png,3,respond_no.png,4,Word 2 of 12,1,Image 3 of 3,1,love,2
2,practiceBlock,centre_mouse,6,29,reveal,Picture1.jpg,N_1.png,1,N_2.png,2,N_3.png,3,N_4.png,4,Y_1.png,1,Y_2.png,2,Y_3.png,3,Y_4.png,4,confidence.png,1,guessing.png,2,respond_yes.png,3,respond_no.png,4,Word 2 of 12,1,Image 3 of 3,1,reveal.png,5
2,practiceBlock,practice_present_trial,7,27,no_4,Picture1.jpg,N_1.png,1,N_2.png,2,N_3.png,3,N_4.png,4,Y_1.png,1,Y_2.png,2,Y_3.png,3,Y_4.png,4,confidence.png,1,guessing.png,2,respond_yes.png,3,respond_no.png,4,Word 3 of 12,1,Image 3 of 3,1,outline,5
2,practiceBlock,centre_mouse,8,53,reveal,Picture1.jpg,N_1.png,1,N_2.png,2,N_3.png,3,N_4.png,4,Y_1.png,1,Y_2.png,2,Y_3.png,3,Y_4.png,4,confidence.png,1,guessing.png,2,respond_yes.png,3,respond_no.png,4,Word 3 of 12,1,Image 3 of 3,1,reveal.png,5
2,practiceBlock,practice_present_trial,9,42,yes_2,Picture1.jpg,N_1.png,1,N_2.png,2,N_3.png,3,N_4.png,4,Y_1.png,1,Y_2.png,2,Y_3.png,3,Y_4.png,4,confidence.png,1,guessing.png,2,respond_yes.png,3,respond_no.png,4,Word 4 of 12,1,Image 3 of 3,1,heart,1
2,practiceBlock,centre_mouse,10,43,reveal,Picture1.jpg,N_1.png,1,N_2.png,2,N_3.png,3,N_4.png,4,Y_1.png,1,Y_2.png,2,Y_3.png,3,Y_4.png,4,confidence.png,1,guessing.png,2,respond_yes.png,3,respond_no.png,4,Word 4 of 12,1,Image 3 of 3,1,reveal.png,5
2,practiceBlock,practice_present_trial,11,27,yes_2,Picture1.jpg,N_1.png,1,N_2.png,2,N_3.png,3,N_4.png,4,Y_1.png,1,Y_2.png,2,Y_3.png,3,Y_4.png,4,confidence.png,1,guessing.png,2,respond_yes.png,3,respond_no.png,4,Word 5 of 12,1,Image 3 of 3,1,red,3
2,practiceBlock,centre_mouse,12,51,reveal,Picture1.jpg,N_1.png,1,N_2.png,2,N_3.png,3,N_4.png,4,Y_1.png,1,Y_2.png,2,Y_3.png,3,Y_4.png,4,confidence.png,1,guessing.png,2,respond_yes.png,3,respond_no.png,4,Word 5 of 12,1,Image 3 of 3,1,reveal.png,5
2,practiceBlock,practice_absent_trial,13,46,no_2,Picture1.jpg,N_1.png,1,N_2.png,2,N_3.png,3,N_4.png,4,Y_1.png,1,Y_2.png,2,Y_3.png,3,Y_4.png,4,confidence.png,1,guessing.png,2,respond_yes.png,3,respond_no.png,4,Word 6 of 12,1,Image 3 of 3,1,line,6
2,practiceBlock,centre_mouse,14,50,reveal,Picture1.jpg,N_1.png,1,N_2.png,2,N_3.png,3,N_4.png,4,Y_1.png,1,Y_2.png,2,Y_3.png,3,Y_4.png,4,confidence.png,1,guessing.png,2,respond_yes.png,3,respond_no.png,4,Word 6 of 12,1,Image 3 of 3,1,reveal.png,5
2,practiceBlock,practice_absent_trial,15,60,no_4,Picture1.jpg,N_1.png,1,N_2.png,2,N_3.png,3,N_4.png,4,Y_1.png,1,Y_2.png,2,Y_3.png,3,Y_4.png,4,confidence.png,1,guessing.png,2,respond_yes.png,3,respond_no.png,4,Word 7 of 12,1,Image 3 of 3,1,dome,5
2,practiceBlock,centre_mouse,16,42,reveal,Picture1.jpg,N_1.png,1,N_2.png,2,N_3.png,3,N_4.png,4,Y_1.png,1,Y_2.png,2,Y_3.png,3,Y_4.png,4,confidence.png,1,guessing.png,2,respond_yes.png,3,respond_no.png,4,Word 7 of 12,1,Image 3 of 3,1,reveal.png,5
2,practiceBlock,practice_absent_trial,17,54,yes_2,Picture1.jpg,N_1.png,1,N_2.png,2,N_3.png,3,N_4.png,4,Y_1.png,1,Y_2.png,2,Y_3.png,3,Y_4.png,4,confidence.png,1,guessing.png,2,respond_yes.png,3,respond_no.png,4,Word 8 of 12,1,Image 3 of 3,1,blanket,1
2,practiceBlock,centre_mouse,18,33,reveal,Picture1.jpg,N_1.png,1,N_2.png,2,N_3.png,3,N_4.png,4,Y_1.png,1,Y_2.png,2,Y_3.png,3,Y_4.png,4,confidence.png,1,guessing.png,2,respond_yes.png,3,respond_no.png,4,Word 8 of 12,1,Image 3 of 3,1,reveal.png,5
2,practiceBlock,practice_present_trial,19,29,yes_4,Picture1.jpg,N_1.png,1,N_2.png,2,N_3.png,3,N_4.png,4,Y_1.png,1,Y_2.png,2,Y_3.png,3,Y_4.png,4,confidence.png,1,guessing.png,2,respond_yes.png,3,respond_no.png,4,Word 9 of 12,1,Image 3 of 3,1,color,6
2,practiceBlock,centre_mouse,20,45,reveal,Picture1.jpg,N_1.png,1,N_2.png,2,N_3.png,3,N_4.png,4,Y_1.png,1,Y_2.png,2,Y_3.png,3,Y_4.png,4,confidence.png,1,guessing.png,2,respond_yes.png,3,respond_no.png,4,Word 9 of 12,1,Image 3 of 3,1,reveal.png,5
2,practiceBlock,practice_present_trial,21,26,yes_3,Picture1.jpg,N_1.png,1,N_2.png,2,N_3.png,3,N_4.png,4,Y_1.png,1,Y_2.png,2,Y_3.png,3,Y_4.png,4,confidence.png,1,guessing.png,2,respond_yes.png,3,respond_no.png,4,Word 10 of 12,1,Image 3 of 3,1,black,4
2,practiceBlock,centre_mouse,22,61,reveal,Picture1.jpg,N_1.png,1,N_2.png,2,N_3.png,3,N_4.png,4,Y_1.png,1,Y_2.png,2,Y_3.png,3,Y_4.png,4,confidence.png,1,guessing.png,2,respond_yes.png,3,respond_no.png,4,Word 10 of 12,1,Image 3 of 3,1,reveal.png,5
2,practiceBlock,practice_absent_trial,23,29,yes_2,Picture1.jpg,N_1.png,1,N_2.png,2,N_3.png,3,N_4.png,4,Y_1.png,1,Y_2.png,2,Y_3.png,3,Y_4.png,4,confidence.png,1,guessing.png,2,respond_yes.png,3,respond_no.png,4,Word 11 of 12,1,Image 3 of 3,1,day,4
2,practiceBlock,centre_mouse,24,56,reveal,Picture1.jpg,N_1.png,1,N_2.png,2,N_3.png,3,N_4.png,4,Y_1.png,1,Y_2.png,2,Y_3.png,3,Y_4.png,4,confidence.png,1,guessing.png,2,respond_yes.png,3,respond_no.png,4,Word 11 of 12,1,Image 3 of 3,1,reveal.png,5
2,practiceBlock,practice_absent_trial,25,44,yes_1,Picture1.jpg,N_1.png,1,N_2.png,2,N_3.png,3,N_4.png,4,Y_1.png,1,Y_2.png,2,Y_3.png,3,Y_4.png,4,confidence.png,1,guessing.png,2,respond_yes.png,3,respond_no.png,4,Word 12 of 12,1,Image 3 of 3,1,wall,3
2,practiceBlock,centre_mouse,26,49,reveal,Picture1.jpg,N_1.png,1,N_2.png,2,N_3.png,3,N_4.png,4,Y_1.png,1,Y_2.png,2,Y_3.png,3,Y_4.png,4,confidence.png,1,guessing.png,2,respond_yes.png,3,respond_no.png,4,Word 12 of 12,1,Image 3 of 3,1,reveal.png,5
2,practiceBlock,catch_absent_trial,27,52,no_4,Picture1.jpg,N_1.png,1,N_2.png,2,N_3.png,3,N_4.png,4,Y_1.png,1,Y_2.png,2,Y_3.png,3,Y_4.png,4,confidence.png,1,guessing.png,2,respond_yes.png,3,respond_no.png,4,Word 12 of 12,1,Image 3 of 3,1,PRESS: No 1,1
2,practiceBlock,centre_mouse,28,44,reveal,Picture1.jpg,N_1.png,1,N_2.png,2,N_3.png,3,N_4.png,4,Y_1.png,1,Y_2.png,2,Y_3.png,3,Y_4.png,4,confidence.png,1,guessing.png,2,respond_yes.png,3,respond_no.png,4,Word 12 of 12,1,Image 3 of 3,1,reveal.png,5
2,practiceBlock,catch_present_trial,29,37,yes_4,Picture1.jpg,N_1.png,1,N_2.png,2,N_3.png,3,N_4.png,4,Y_1.png,1,Y_2.png,2,Y_3.png,3,Y_4.png,4,confidence.png,1,guessing.png,2,respond_yes.png,3,respond_no.png,4,Word 12 of 12,1,Image 3 of 3,1,PRESS: Yes 4,4
2,practiceBlock,centre_mouse,30,52,reveal,Picture1.jpg,N_1.png,1,N_2.png,2,N_3.png,3,N_4.png,4,Y_1.png,1,Y_2.png,2,Y_3.png,3,Y_4.png,4,confidence.png,1,guessing.png,2,respond_yes.png,3,respond_no.png,4,Word 12 of 12,1,Image 3 of 3,1,reveal.png,5
2,reset,reset,1,200,0,Picture1.jpg,0,0,0,0,0,0,0,0,0,0,0,0,0,0,0,0,0,0,0,0,0,0,0,0,0,0,0,0,0,0
2,testBlock,test,1,1,0,im0000041.jpg,+,1,im0000056.jpg,3,mask4.jpg,4,mask5.jpg,5,mask1.jpg,1,mask3.jpg,3,mask4.jpg,4,0,0,0,0,0,0,0,0,0,0,0,0,0,0,0,0
