subject,blockcode,trialcode,trialnum,latency,response,values.imageName,stimulusitem1,stimulusnumber1,stimulusitem2,stimulusnumber2,stimulusitem3,stimulusnumber3,stimulusitem4,stimulusnumber4,stimulusitem5,stimulusnumber5,stimulusitem6,stimulusnumber6,stimulusitem7,stimulusnumber7,stimulusitem8,stimulusnumber8,stimulusitem9,stimulusnumber9,stimulusitem10,stimulusnumber10,stimulusitem11,stimulusnumber11,stimulusitem12,stimulusnumber12,stimulusitem13,stimulusnumber13,stimulusitem14,stimulusnumber14,stimulusitem15,stimulusnumber15
1,practiceBlock,practice,1,1,0,Picture1.jpg,+,1,Picture1.jpg,1,mask5.jpg,5,mask4.jpg,4,mask2.jpg,2,mask3.jpg,3,mask4.jpg,4,0,0,0,0,0,0,0,0,0,0,0,0,0,0,0,0
1,practiceBlock,centre_mouse,2,48,reveal,Picture1.jpg,N_1.png,1,N_2.png,2,N_3.png,3,N_4.png,4,Y_1.png,1,Y_2.png,2,Y_3.png,3,Y_4.png,4,confidence.png,1,guessing.png,2,respond_yes.png,3,respond_no.png,4,Word 0 of 12,1,Image 1 of 3,1,reveal.png,5
1,practiceBlock,practice_absent_trial,3,56,yes_3,Picture1.jpg,N_1.png,1,N_2.png,2,N_3.png,3,N_4.png,4,Y_1.png,1,Y_2.png,2,Y_3.png,3,Y_4.png,4,confidence.png,1,guessing.png,2,respond_yes.png,3,respond_no.png,4,Word 1 of 12,1,Image 1 of 3,1,day,4
1,practiceBlock,centre_mouse,4,44,reveal,Picture1.jpg,N_1.png,1,N_2.png,2,N_3.png,3,N_4.png,4,Y_1.png,1,Y_2.png,2,Y_3.png,3,Y_4.png,4,confidence.png,1,guessing.png,2,respond_yes.png,3,respond_no.png,4,Word 1 of 12,1,Image 1 of 3,1,reveal.png,5
1,practiceBlock,practice_present_trial,5,43,no_4,Picture1.jpg,N_1.png,1,N_2.png,2,N_3.png,3,N_4.png,4,Y_1.png,1,Y_2.png,2,Y_3.png,3,Y_4.png,4,confidence.png,1,guessing.png,2,respond_yes.png,3,respond_no.png,4,Word 2 of 12,1,Image 1 of 3,1,red,3
1,practiceBlock,centre_mouse,6,40,reveal,Picture1.jpg,N_1.png,1,N_2.png,2,N_3.png,3,N_4.png,4,Y_1.png,1,Y_2.png,2,Y_3.png,3,Y_4.png,4,confidence.png,1,guessing.png,2,respond_yes.png,3,respond_no.png,4,Word 2 of 12,1,Image 1 of 3,1,reveal.png,5
1,practiceBlock,practice_absent_trial,7,38,no_3,Picture1.jpg,N_1.png,1,N_2.png,2,N_3.png,3,N_4.png,4,Y_1.png,1,Y_2.png,2,Y_3.png,3,Y_4.png,4,confidence.png,1,guessing.png,2,respond_yes.png,3,respond_no.png,4,Word 3 of 12,1,Image 1 of 3,1,wall,3
1,practiceBlock,centre_mouse,8,52,reveal,Picture1.jpg,N_1.png,1,N_2.png,2,N_3.png,3,N_4.png,4,Y_1.png,1,Y_2.png,2,Y_3.png,3,Y_4.png,4,confidence.png,1,guessing.png,2,respond_yes.png,3,respond_no.png,4,Word 3 of 12,1,Image 1 of 3,1,reveal.png,5
1,practiceBlock,practice_present_trial,9,53,no_3,Picture1.jpg,N_1.png,1,N_2.png,2,N_3.png,3,N_4.png,4,Y_1.png,1,Y_2.png,2,Y_3.png,3,Y_4.png,4,confidence.png,1,guessing.png,2,respond_yes.png,3,respond_no.png,4,Word 4 of 12,1,Image 1 of 3,1,outline,5
1,practiceBlock,centre_mouse,10,40,reveal,Picture1.jpg,N_1.png,1,N_2.png,2,N_3.png,3,N_4.png,4,Y_1.png,1,Y_2.png,2,Y_3.png,3,Y_4.png,4,confidence.png,1,guessing.png,2,respond_yes.png,3,respond_no.png,4,Word 4 of 12,1,Image 1 of 3,1,reveal.png,5
1,practiceBlock,practice_absent_trial,11,43,no_4,Picture1.jpg,N_1.png,1,N_2.png,2,N_3.png,3,N_4.png,4,Y_1.png,1,Y_2.png,2,Y_3.png,3,Y_4.png,4,confidence.png,1,guessing.png,2,respond_yes.png,3,respond_no.png,4,Word 5 of 12,1,Image 1 of 3,1,line,6
1,practiceBlock,centre_mouse,12,63,reveal,Picture1.jpg,N_1.png,1,N_2.png,2,N_3.png,3,N_4.png,4,Y_1.png,1,Y_2.png,2,Y_3.png,3,Y_4.png,4,confidence.png,1,guessing.png,2,respond_yes.png,3,respond_no.png,4,Word 5 of 12,1,Image 1 of 3,1,reveal.png,5
1,practiceBlock,practice_absent_trial,13,61,no_4,Picture1.jpg,N_1.png,1,N_2.png,2,N_3.png,3,N_4.png,4,Y_1.png,1,Y_2.png,2,Y_3.png,3,Y_4.png,4,confidence.png,1,guessing.png,2,respond_yes.png,3,respond_no.png,4,Word 6 of 12,1,Image 1 of 3,1,crow,2
1,practiceBlock,centre_mouse,14,64,reveal,Picture1.jpg,N_1.png,1,N_2.png,2,N_3.png,3,N_4.png,4,Y_1.png,1,Y_2.png,2,Y_3.png,3,Y_4.png,4,confidence.png,1,guessing.png,2,respond_yes.png,3,respond_no.png,4,Word 6 of 12,1,Image 1 of 3,1,reveal.png,5
1,practiceBlock,practice_present_trial,15,58,yes_2,Picture1.jpg,N_1.png,1,N_2.png,2,N_3.png,3,N_4.png,4,Y_1.png,1,Y_2.png,2,Y_3.png,3,Y_4.png,4,confidence.png,1,guessing.png,2,respond_yes.png,3,respond_no.png,4,Word 7 of 12,1,Image 1 of 3,1,color,6
1,practiceBlock,centre_mouse,16,50,reveal,Picture1.jpg,N_1.png,1,N_2.png,2,N_3.png,3,N_4.png,4,Y_1.png,1,Y_2.png,2,Y_3.png,3,Y_4.png,4,confidence.png,1,guessing.png,2,respond_yes.png,3,respond_no.png,4,Word 7 of 12,1,Image 1 of 3,1,reveal.png,5
1,practiceBlock,practice_absent_trial,17,59,yes_4,Picture1.jpg,N_1.png,1,N_2.png,2,N_3.png,3,N_4.png,4,Y_1.png,1,Y_2.png,2,Y_3.png,3,Y_4.png,4,confidence.png,1,guessing.png,2,respond_yes.png,3,respond_no.png,4,Word 8 of 12,1,Image 1 of 3,1,blanket,1
1,practiceBlock,centre_mouse,18,52,reveal,Picture1.jpg,N_1.png,1,N_2.png,2,N_3.png,3,N_4.png,4,Y_1.png,1,Y_2.png,2,Y_3.png,3,Y_4.png,4,confidence.png,1,guessing.png,2,respond_yes.png,3,respond_no.png,4,Word 8 of 12,1,Image 1 of 3,1,reveal.png,5
1,practiceBlock,practice_present_trial,19,67,yes_3,Picture1.jpg,N_1.png,1,N_2.png,2,N_3.png,3,N_4.png,4,Y_1.png,1,Y_2.png,2,Y_3.png,3,Y_4.png,4,confidence.png,1,guessing.png,2,respond_yes.png,3,respond_no.png,4,Word 9 of 12,1,Image 1 of 3,1,heart,1
1,practiceBlock,centre_mouse,20,51,reveal,Picture1.jpg,N_1.png,1,N_2.png,2,N_3.png,3,N_4.png,4,Y_1.png,1,Y_2.png,2,Y_3.png,3,Y_4.png,4,confidence.png,1,guessing.png,2,respond_yes.png,3,respond_no.png,4,Word 9 of 12,1,Image 1 of 3,1,reveal.png,5
1,practiceBlock,practice_present_trial,21,35,yes_2,Picture1.jpg,N_1.png,1,N_2.png,2,N_3.png,3,N_4.png,4,Y_1.png,1,Y_2.png,2,Y_3.png,3,Y_4.png,4,confidence.png,1,guessing.png,2,respond_yes.png,3,respond_no.png,4,Word 10 of 12,1,Image 1 of 3,1,love,2
1,practiceBlock,centre_mouse,22,41,reveal,Picture1.jpg,N_1.png,1,N_2.png,2,N_3.png,3,N_4.png,4,Y_1.png,1,Y_2.png,2,Y_3.png,3,Y_4.png,4,confidence.png,1,guessing.png,2,respond_yes.png,3,respond_no.png,4,Word 10 of 12,1,Image 1 of 3,1,reveal.png,5
1,practiceBlock,practice_present_trial,23,43,yes_1,Picture1.jpg,N_1.png,1,N_2.png,2,N_3.png,3,N_4.png,4,Y_1.png,1,Y_2.png,2,Y_3.png,3,Y_4.png,4,confidence.png,1,guessing.png,2,respond_yes.png,3,respond_no.png,4,Word 11 of 12,1,Image 1 of 3,1,black,4
1,practiceBlock,centre_mouse,24,63,reveal,Picture1.jpg,N_1.png,1,N_2.png,2,N_3.png,3,N_4.png,4,Y_1.png,1,Y_2.png,2,Y_3.png,3,Y_4.png,4,confidence.png,1,guessing.png,2,respond_yes.png,3,respond_no.png,4,Word 11 of 12,1,Image 1 of 3,1,reveal.png,5
1,practiceBlock,practice_absent_trial,25,23,no_1,Picture1.jpg,N_1.png,1,N_2.png,2,N_3.png,3,N_4.png,4,Y_1.png,1,Y_2.png,2,Y_3.png,3,Y_4.png,4,confidence.png,1,guessing.png,2,respond_yes.png,3,respond_no.png,4,Word 12 of 12,1,Image 1 of 3,1,dome,5
1,practiceBlock,centre_mouse,26,38,reveal,Picture1.jpg,N_1.png,1,N_2.png,2,N_3.png,3,N_4.png,4,Y_1.png,1,Y_2.png,2,Y_3.png,3,Y_4.png,4,confidence.png,1,guessing.png,2,respond_yes.png,3,respond_no.png,4,Word 12 of 12,1,Image 1 of 3,1,reveal.png,5
1,practiceBlock,catch_present_trial,27,36,yes_3,Picture1.jpg,N_1.png,1,N_2.png,2,N_3.png,3,N_4.png,4,Y_1.png,1,Y_2.png,2,Y_3.png,3,Y_4.png,4,confidence.png,1,guessing.png,2,respond_yes.png,3,respond_no.png,4,Word 12 of 12,1,Image 1 of 3,1,PRESS: Yes 2,2
1,practiceBlock,centre_mouse,28,30,reveal,Picture1.jpg,N_1.png,1,N_2.png,2,N_3.png,3,N_4.png,4,Y_1.png,1,Y_2.png,2,Y_3.png,3,Y_4.png,4,confidence.png,1,guessing.png,2,respond_yes.png,3,respond_no.png,4,Word 12 of 12,1,Image 1 of 3,1,reveal.png,5
1,practiceBlock,catch_absent_trial,29,76,yes_3,Picture1.jpg,N_1.png,1,N_2.png,2,N_3.png,3,N_4.png,4,Y_1.png,1,Y_2.png,2,Y_3.png,3,Y_4.png,4,confidence.png,1,guessing.png,2,respond_yes.png,3,respond_no.png,4,Word 12 of 12,1,Image 1 of 3,1,PRESS: No 3,3
1,practiceBlock,centre_mouse,30,71,reveal,Picture1.jpg,N_1.png,1,N_2.png,2,N_3.png,3,N_4.png,4,Y_1.png,1,Y_2.png,2,Y_3.png,3,Y_4.png,4,confidence.png,1,guessing.png,2,respond_yes.png,3,respond_no.png,4,Word 12 of 12,1,Image 1 of 3,1,reveal.png,5
1,practiceBlock,practice,1,1,0,Picture1.jpg,+,1,Picture3.jpg,3,mask4.jpg,4,mask3.jpg,3,mask1.jpg,1,mask2.jpg,2,mask1.jpg,1,0,0,0,0,0,0,0,0,0,0,0,0,0,0,0,0
1,practiceBlock,centre_mouse,2,48,reveal,Picture1.jpg,N_1.png,1,N_2.png,2,N_3.png,3,N_4.png,4,Y_1.png,1,Y_2.png,2,Y_3.png,3,Y_4.png,4,confidence.png,1,guessing.png,2,respond_yes.png,3,respond_no.png,4,Word 0 of 12,1,Image 2 of 3,1,reveal.png,5
1,practiceBlock,practice_absent_trial,3,27,no_3,Picture3.jpg,N_1.png,1,N_2.png,2,N_3.png,3,N_4.png,4,Y_1.png,1,Y_2.png,2,Y_3.png,3,Y_4.png,4,confidence.png,1,guessing.png,2,respond_yes.png,3,respond_no.png,4,Word 1 of 12,1,Image 2 of 3,1,blue-hat,6
1,practiceBlock,centre_mouse,4,52,reveal,Picture3.jpg,N_1.png,1,N_2.png,2,N_3.png,3,N_4.png,4,Y_1.png,1,Y_2.png,2,Y_3.png,3,Y_4.png,4,confidence.png,1,guessing.png,2,respond_yes.png,3,respond_no.png,4,Word 1 of 12,1,Image 2 of 3,1,reveal.png,5
1,practiceBlock,practice_absent_trial,5,30,no_1,Picture3.jpg,N_1.png,1,N_2.png,2,N_3.png,3,N_4.png,4,Y_1.png,1,Y_2.png,2,Y_3.png,3,Y_4.png,4,confidence.png,1,guessing.png,2,respond_yes.png,3,respond_no.png,4,Word 2 of 12,1,Image 2 of 3,1,stand,5
1,practiceBlock,centre_mouse,6,60,reveal,Picture3.jpg,N_1.png,1,N_2.png,2,N_3.png,3,N_4.png,4,Y_1.png,1,Y_2.png,2,Y_3.png,3,Y_4.png,4,confidence.png,1,guessing.png,2,respond_yes.png,3,respond_no.png,4,Word 2 of 12,1,Image 2 of 3,1,reveal.png,5
1,practiceBlock,practice_present_trial,7,44,yes_4,Picture3.jpg,N_1.png,1,N_2.png,2,N_3.png,3,N_4.png,4,Y_1.png,1,Y_2.png,2,Y_3.png,3,Y_4.png,4,confidence.png,1,guessing.png,2,respond_yes.png,3,respond_no.png,4,Word 3 of 12,1,Image 2 of 3,1,blue,5
1,practiceBlock,centre_mouse,8,36,reveal,Picture3.jpg,N_1.png,1,N_2.png,2,N_3.png,3,N_4.png,4,Y_1.png,1,Y_2.png,2,Y_3.png,3,Y_4.png,4,confidence.png,1,guessing.png,2,respond_yes.png,3,respond_no.png,4,Word 3 of 12,1,Image 2 of 3,1,reveal.png,5
1,practiceBlock,practice_absent_trial,9,21,yes_1,Picture3.jpg,N_1.png,1,N_2.png,2,N_3.png,3,N_4.png,4,Y_1.png,1,Y_2.png,2,Y_3.png,3,Y_4.png,4,confidence.png,1,guessing.png,2,respond_yes.png,3,respond_no.png,4,Word 4 of 12,1,Image 2 of 3,1,horse,2
1,practiceBlock,centre_mouse,10,44,reveal,Picture3.jpg,N_1.png,1,N_2.png,2,N_3.png,3,N_4.png,4,Y_1.png,1,Y_2.png,2,Y_3.png,3,Y_4.png,4,confidence.png,1,guessing.png,2,respond_yes.png,3,respond_no.png,4,Word 4 of 12,1,Image 2 of 3,1,reveal.png,5
1,practiceBlock,practice_absent_trial,11,66,no_1,Picture3.jpg,N_1.png,1,N_2.png,2,N_3.png,3,N_4.png,4,Y_1.png,1,Y_2.png,2,Y_3.png,3,Y_4.png,4,confidence.png,1,guessing.png,2,respond_yes.png,3,respond_no.png,4,Word 5 of 12,1,Image 2 of 3,1,old,4
1,practiceBlock,centre_mouse,12,39,reveal,Picture3.jpg,N_1.png,1,N_2.png,2,N_3.png,3,N_4.png,4,Y_1.png,1,Y_2.png,2,Y_3.png,3,Y_4.png,4,confidence.png,1,guessing.png,2,respond_yes.png,3,respond_no.png,4,Word 5 of 12,1,Image 2 of 3,1,reveal.png,5
1,practiceBlock,practice_absent_trial,13,31,no_3,Picture3.jpg,N_1.png,1,N_2.png,2,N_3.png,3,N_4.png,4,Y_1.png,1,Y_2.png,2,Y_3.png,3,Y_4.png,4,confidence.png,1,guessing.png,2,respond_yes.png,3,respond_no.png,4,Word 6 of 12,1,Image 2 of 3,1,coat,3
1,practiceBlock,centre_mouse,14,48,reveal,Picture3.jpg,N_1.png,1,N_2.png,2,N_3.png,3,N_4.png,4,Y_1.png,1,Y_2.png,2,Y_3.png,3,Y_4.png,4,confidence.png,1,guessing.png,2,respond_yes.png,3,respond_no.png,4,Word 6 of 12,1,Image 2 of 3,1,reveal.png,5
1,practiceBlock,practice_present_trial,15,33,yes_1,Picture3.jpg,N_1.png,1,N_2.png,2,N_3.png,3,N_4.png,4,Y_1.png,1,Y_2.png,2,Y_3.png,3,Y_4.png,4,confidence.png,1,guessing.png,2,respond_yes.png,3,respond_no.png,4,Word 7 of 12,1,Image 2 of 3,1,sun,2
1,practiceBlock,centre_mouse,16,42,reveal,Picture3.jpg,N_1.png,1,N_2.png,2,N_3.png,3,N_4.png,4,Y_1.png,1,Y_2.png,2,Y_3.png,3,Y_4.png,4,confidence.png,1,guessing.png,2,respond_yes.png,3,respond_no.png,4,Word 7 of 12,1,Image 2 of 3,1,reveal.png,5
1,practiceBlock,practice_present_trial,17,50,no_3,Picture3.jpg,N_1.png,1,N_2.png,2,N_3.png,3,N_4.png,4,Y_1.png,1,Y_2.png,2,Y_3.png,3,Y_4.png,4,confidence.png,1,guessing.png,2,respond_yes.png,3,respond_no.png,4,Word 8 of 12,1,Image 2 of 3,1,cloud,3
1,practiceBlock,centre_mouse,18,33,reveal,Picture3.jpg,N_1.png,1,N_2.png,2,N_3.png,3,N_4.png,4,Y_1.png,1,Y_2.png,2,Y_3.png,3,Y_4.png,4,confidence.png,1,guessing.png,2,respond_yes.png,3,respond_no.png,4,Word 8 of 12,1,Image 2 of 3,1,reveal.png,5
1,practiceBlock,practice_absent_trial,19,52,no_3,Picture3.jpg,N_1.png,1,N_2.png,2,N_3.png,3,N_4.png,4,Y_1.png,1,Y_2.png,2,Y_3.png,3,Y_4.png,4,confidence.png,1,guessing.png,2,respond_yes.png,3,respond_no.png,4,Word 9 of 12,1,Image 2 of 3,1,zoomed-in,1
1,practiceBlock,centre_mouse,20,24,reveal,Picture3.jpg,N_1.png,1,N_2.png,2,N_3.png,3,N_4.png,4,Y_1.png,1,Y_2.png,2,Y_3.png,3,Y_4.png,4,confidence.png,1,guessing.png,2,respond_yes.png,3,respond_no.png,4,Word 9 of 12,1,Image 2 of 3,1,reveal.png,5
1,practiceBlock,practice_present_trial,21,22,no_1,Picture3.jpg,N_1.png,1,N_2.png,2,N_3.png,3,N_4.png,4,Y_1.png,1,Y_2.png,2,Y_3.png,3,Y_4.png,4,confidence.png,1,guessing.png,2,respond_yes.png,3,respond_no.png,4,Word 10 of 12,1,Image 2 of 3,1,landscape,4
1,practiceBlock,centre_mouse,22,36,reveal,Picture3.jpg,N_1.png,1,N_2.png,2,N_3.png,3,N_4.png,4,Y_1.png,1,Y_2.png,2,Y_3.png,3,Y_4.png,4,confidence.png,1,guessing.png,2,respond_yes.png,3,respond_no.png,4,Word 10 of 12,1,Image 2 of 3,1,reveal.png,5
1,practiceBlock,practice_present_trial,23,33,no_4,Picture3.jpg,N_1.png,1,N_2.png,2,N_3.png,3,N_4.png,4,Y_1.png,1,Y_2.png,2,Y_3.png,3,Y_4.png,4,confidence.png,1,guessing.png,2,respond_yes.png,3,respond_no.png,4,Word 11 of 12,1,Image 2 of 3,1,mountain,1
1,practiceBlock,centre_mouse,24,55,reveal,Picture3.jpg,N_1.png,1,N_2.png,2,N_3.png,3,N_4.png,4,Y_1.png,1,Y_2.png,2,Y_3.png,3,Y_4.png,4,confidence.png,1,guessing.png,2,respond_yes.png,3,respond_no.png,4,Word 11 of 12,1,Image 2 of 3,1,reveal.png,5
1,practiceBlock,practice_present_trial,25,49,no_3,Picture3.jpg,N_1.png,1,N_2.png,2,N_3.png,3,N_4.png,4,Y_1.png,1,Y_2.png,2,Y_3.png,3,Y_4.png,4,confidence.png,1,guessing.png,2,respond_yes.png,3,respond_no.png,4,Word 12 of 12,1,Image 2 of 3,1,sky,6
1,practiceBlock,centre_mouse,26,43,reveal,Picture3.jpg,N_1.png,1,N_2.png,2,N_3.png,3,N_4.png,4,Y_1.png,1,Y_2.png,2,Y_3.png,3,Y_4.png,4,confidence.png,1,guessing.png,2,respond_yes.png,3,respond_no.png,4,Word 12 of 12,1,Image 2 of 3,1,reveal.png,5
1,practiceBlock,catch_present_trial,27,49,yes_1,Picture3.jpg,N_1.png,1,N_2.png,2,N_3.png,3,N_4.png,4,Y_1.png,1,Y_2.png,2,Y_3.png,3,Y_4.png,4,confidence.png,1,guessing.png,2,respond_yes.png,3,respond_no.png,4,Word 12 of 12,1,Image 2 of 3,1,PRESS: Yes 3,3
1,practiceBlock,centre_mouse,28,46,reveal,Picture3.jpg,N_1.png,1,N_2.png,2,N_3.png,3,N_4.png,4,Y_1.png,1,Y_2.png,2,Y_3.png,3,Y_4.png,4,confidence.png,1,guessing.png,2,respond_yes.png,3,respond_no.png,4,Word 12 of 12,1,Image 2 of 3,1,reveal.png,5
1,practiceBlock,catch_absent_trial,29,51,no_3,Picture3.jpg,N_1.png,1,N_2.png,2,N_3.png,3,N_4.png,4,Y_1.png,1,Y_2.png,2,Y_3.png,3,Y_4.png,4,confidence.png,1,guessing.png,2,respond_yes.png,3,respond_no.png,4,Word 12 of 12,1,Image 2 of 3,1,PRESS: No 2,2
1,practiceBlock,centre_mouse,30,59,reveal,Picture3.jpg,N_1.png,1,N_2.png,2,N_3.png,3,N_4.png,4,Y_1.png,1,Y_2.png,2,Y_3.png,3,Y_4.png,4,confidence.png,1,guessing.png,2,respond_yes.png,3,respond_no.png,4,Word 12 of 12,1,Image 2 of 3,1,reveal.png,5
1,practiceBlock,practice,1,1,0,Picture3.jpg,+,1,Picture2.jpg,2,mask2.jpg,2,mask5.jpg,5,mask5.jpg,5,mask1.jpg,1,mask5.jpg,5,0,0,0,0,0,0,0,0,0,0,0,0,0,0,0,0
1,practiceBlock,centre_mouse,2,46,reveal,Picture3.jpg,N_1.png,1,N_2.png,2,N_3.png,3,N_4.png,4,Y_1.png,1,Y_2.png,2,Y_3.png,3,Y_4.png,4,confidence.png,1,guessing.png,2,respond_yes.png,3,respond_no.png,4,Word 0 of 12,1,Image 3 of 3,1,reveal.png,5
1,practiceBlock,practice_present_trial,3,56,yes_4,Picture2.jpg,N_1.png,1,N_2.png,2,N_3.png,3,N_4.png,4,Y_1.png,1,Y_2.png,2,Y_3.png,3,Y_4.png,4,confidence.png,1,guessing.png,2,respond_yes.png,3,respond_no.png,4,Word 1 of 12,1,Image 3 of 3,1,emoji,6
1,practiceBlock,centre_mouse,4,65,reveal,Picture2.jpg,N_1.png,1,N_2.png,2,N_3.png,3,N_4.png,4,Y_1.png,1,Y_2.png,2,Y_3.png,3,Y_4.png,4,confidence.png,1,guessing.png,2,respond_yes.png,3,respond_no.png,4,Word 1 of 12,1,Image 3 of 3,1,reveal.png,5
1,practiceBlock,practice_absent_trial,5,47,yes_3,Picture2.jpg,N_1.png,1,N_2.png,2,N_3.png,3,N_4.png,4,Y_1.png,1,Y_2.png,2,Y_3.png,3,Y_4.png,4,confidence.png,1,guessing.png,2,respond_yes.png,3,respond_no.png,4,Word 2 of 12,1,Image 3 of 3,1,beauty,2
1,practiceBlock,centre_mouse,6,61,reveal,Picture2.jpg,N_1.png,1,N_2.png,2,N_3.png,3,N_4.png,4,Y_1.png,1,Y_2.png,2,Y_3.png,3,Y_4.png,4,confidence.png,1,guessing.png,2,respond_yes.png,3,respond_no.png,4,Word 2 of 12,1,Image 3 of 3,1,reveal.png,5
1,practiceBlock,practice_absent_trial,7,16,no_4,Picture2.jpg,N_1.png,1,N_2.png,2,N_3.png,3,N_4.png,4,Y_1.png,1,Y_2.png,2,Y_3.png,3,Y_4.png,4,confidence.png,1,guessing.png,2,respond_yes.png,3,respond_no.png,4,Word 3 of 12,1,Image 3 of 3,1,metal,3
1,practiceBlock,centre_mouse,8,48,reveal,Picture2.jpg,N_1.png,1,N_2.png,2,N_3.png,3,N_4.png,4,Y_1.png,1,Y_2.png,2,Y_3.png,3,Y_4.png,4,confidence.png,1,guessing.png,2,respond_yes.png,3,respond_no.png,4,Word 3 of 12,1,Image 3 of 3,1,reveal.png,5
1,practiceBlock,practice_present_trial,9,52,yes_1,Picture2.jpg,N_1.png,1,N_2.png,2,N_3.png,3,N_4.png,4,Y_1.png,1,Y_2.png,2,Y_3.png,3,Y_4.png,4,confidence.png,1,guessing.png,2,respond_yes.png,3,respond_no.png,4,Word 4 of 12,1,Image 3 of 3,1,smile,4
1,practiceBlock,centre_mouse,10,34,reveal,Picture2.jpg,N_1.png,1,N_2.png,2,N_3.png,3,N_4.png,4,Y_1.png,1,Y_2.png,2,Y_3.png,3,Y_4.png,4,confidence.png,1,guessing.png,2,respond_yes.png,3,respond_no.png,4,Word 4 of 12,1,Image 3 of 3,1,reveal.png,5
1,practiceBlock,practice_present_trial,11,48,yes_2,Picture2.jpg,N_1.png,1,N_2.png,2,N_3.png,3,N_4.png,4,Y_1.png,1,Y_2.png,2,Y_3.png,3,Y_4.png,4,confidence.png,1,guessing.png,2,respond_yes.png,3,respond_no.png,4,Word 5 of 12,1,Image 3 of 3,1,face,1
1,practiceBlock,centre_mouse,12,23,reveal,Picture2.jpg,N_1.png,1,N_2.png,2,N_3.png,3,N_4.png,4,Y_1.png,1,Y_2.png,2,Y_3.png,3,Y_4.png,4,confidence.png,1,guessing.png,2,respond_yes.png,3,respond_no.png,4,Word 5 of 12,1,Image 3 of 3,1,reveal.png,5
1,practiceBlock,practice_absent_trial,13,49,no_4,Picture2.jpg,N_1.png,1,N_2.png,2,N_3.png,3,N_4.png,4,Y_1.png,1,Y_2.png,2,Y_3.png,3,Y_4.png,4,confidence.png,1,guessing.png,2,respond_yes.png,3,respond_no.png,4,Word 6 of 12,1,Image 3 of 3,1,man,6
1,practiceBlock,centre_mouse,14,30,reveal,Picture2.jpg,N_1.png,1,N_2.png,2,N_3.png,3,N_4.png,4,Y_1.png,1,Y_2.png,2,Y_3.png,3,Y_4.png,4,confidence.png,1,guessing.png,2,respond_yes.png,3,respond_no.png,4,Word 6 of 12,1,Image 3 of 3,1,reveal.png,5
1,practiceBlock,practice_absent_trial,15,40,no_2,Picture2.jpg,N_1.png,1,N_2.png,2,N_3.png,3,N_4.png,4,Y_1.png,1,Y_2.png,2,Y_3.png,3,Y_4.png,4,confidence.png,1,guessing.png,2,respond_yes.png,3,respond_no.png,4,Word 7 of 12,1,Image 3 of 3,1,grey-clothes,4
1,practiceBlock,centre_mouse,16,52,reveal,Picture2.jpg,N_1.png,1,N_2.png,2,N_3.png,3,N_4.png,4,Y_1.png,1,Y_2.png,2,Y_3.png,3,Y_4.png,4,confidence.png,1,guessing.png,2,respond_yes.png,3,respond_no.png,4,Word 7 of 12,1,Image 3 of 3,1,reveal.png,5
1,practiceBlock,practice_present_trial,17,39,no_3,Picture2.jpg,N_1.png,1,N_2.png,2,N_3.png,3,N_4.png,4,Y_1.png,1,Y_2.png,2,Y_3.png,3,Y_4.png,4,confidence.png,1,guessing.png,2,respond_yes.png,3,respond_no.png,4,Word 8 of 12,1,Image 3 of 3,1,happy,5
1,practiceBlock,centre_mouse,18,42,reveal,Picture2.jpg,N_1.png,1,N_2.png,2,N_3.png,3,N_4.png,4,Y_1.png,1,Y_2.png,2,Y_3.png,3,Y_4.png,4,confidence.png,1,guessing.png,2,respond_yes.png,3,respond_no.png,4,Word 8 of 12,1,Image 3 of 3,1,reveal.png,5
1,practiceBlock,practice_present_trial,19,37,yes_2,Picture2.jpg,N_1.png,1,N_2.png,2,N_3.png,3,N_4.png,4,Y_1.png,1,Y_2.png,2,Y_3.png,3,Y_4.png,4,confidence.png,1,guessing.png,2,respond_yes.png,3,respond_no.png,4,Word 9 of 12,1,Image 3 of 3,1,eyes,3
1,practiceBlock,centre_mouse,20,37,reveal,Picture2.jpg,N_1.png,1,N_2.png,2,N_3.png,3,N_4.png,4,Y_1.png,1,Y_2.png,2,Y_3.png,3,Y_4.png,4,confidence.png,1,guessing.png,2,respond_yes.png,3,respond_no.png,4,Word 9 of 12,1,Image 3 of 3,1,reveal.png,5
1,practiceBlock,practice_absent_trial,21,47,no_2,Picture2.jpg,N_1.png,1,N_2.png,2,N_3.png,3,N_4.png,4,Y_1.png,1,Y_2.png,2,Y_3.png,3,Y_4.png,4,confidence.png,1,guessing.png,2,respond_yes.png,3,respond_no.png,4,Word 10 of 12,1,Image 3 of 3,1,walk,1
1,practiceBlock,centre_mouse,22,56,reveal,Picture2.jpg,N_1.png,1,N_2.png,2,N_3.png,3,N_4.png,4,Y_1.png,1,Y_2.png,2,Y_3.png,3,Y_4.png,4,confidence.png,1,guessing.png,2,respond_yes.png,3,respond_no.png,4,Word 10 of 12,1,Image 3 of 3,1,reveal.png,5
1,practiceBlock,practice_absent_trial,23,30,no_3,Picture2.jpg,N_1.png,1,N_2.png,2,N_3.png,3,N_4.png,4,Y_1.png,1,Y_2.png,2,Y_3.png,3,Y_4.png,4,confidence.png,1,guessing.png,2,respond_yes.png,3,respond_no.png,4,Word 11 of 12,1,Image 3 of 3,1,anxious,5
1,practiceBlock,centre_mouse,24,49,reveal,Picture2.jpg,N_1.png,1,N_2.png,2,N_3.png,3,N_4.png,4,Y_1.png,1,Y_2.png,2,Y_3.png,3,Y_4.png,4,confidence.png,1,guessing.png,2,respond_yes.png,3,respond_no.png,4,Word 11 of 12,1,Image 3 of 3,1,reveal.png,5
1,practiceBlock,practice_present_trial,25,40,yes_4,Picture2.jpg,N_1.png,1,N_2.png,2,N_3.png,3,N_4.png,4,Y_1.png,1,Y_2.png,2,Y_3.png,3,Y_4.png,4,confidence.png,1,guessing.png,2,respond_yes.png,3,respond_no.png,4,Word 12 of 12,1,Image 3 of 3,1,yellow,2
1,practiceBlock,centre_mouse,26,40,reveal,Picture2.jpg,N_1.png,1,N_2.png,2,N_3.png,3,N_4.png,4,Y_1.png,1,Y_2.png,2,Y_3.png,3,Y_4.png,4,confidence.png,1,guessing.png,2,respond_yes.png,3,respond_no.png,4,Word 12 of 12,1,Image 3 of 3,1,reveal.png,5
1,practiceBlock,catch_present_trial,27,52,yes_4,Picture2.jpg,N_1.png,1,N_2.png,2,N_3.png,3,N_4.png,4,Y_1.png,1,Y_2.png,2,Y_3.png,3,Y_4.png,4,confidence.png,1,guessing.png,2,respond_yes.png,3,respond_no.png,4,Word 12 of 12,1,Image 3 of 3,1,PRESS: Yes 1,1
1,practiceBlock,centre_mouse,28,57,reveal,Picture2.jpg,N_1.png,1,N_2.png,2,N_3.png,3,N_4.png,4,Y_1.png,1,Y_2.png,2,Y_3.png,3,Y_4.png,4,confidence.png,1,guessing.png,2,respond_yes.png,3,respond_no.png,4,Word 12 of 12,1,Image 3 of 3,1,reveal.png,5
1,practiceBlock,catch_absent_trial,29,54,no_3,Picture2.jpg,N_1.png,1,N_2.png,2,N_3.png,3,N_4.png,4,Y_1.png,1,Y_2.png,2,Y_3.png,3,Y_4.png,4,confidence.png,1,guessing.png,2,respond_yes.png,3,respond_no.png,4,Word 12 of 12,1,Image 3 of 3,1,PRESS: No 4,4
1,practiceBlock,centre_mouse,30,41,reveal,Picture2.jpg,N_1.png,1,N_2.png,2,N_3.png,3,N_4.png,4,Y_1.png,1,Y_2.png,2,Y_3.png,3,Y_4.png,4,confidence.png,1,guessing.png,2,respond_yes.png,3,respond_no.png,4,Word 12 of 12,1,Image 3 of 3,1,reveal.png,5
1,reset,reset,1,200,0,Picture2.jpg,0,0,0,0,0,0,0,0,0,0,0,0,0,0,0,0,0,0,0,0,0,0,0,0,0,0,0,0,0,0
1,testBlock,test,1,1,0,im0000041.jpg,+,1,im0000056.jpg,3,mask3.jpg,3,mask1.jpg,1,mask4.jpg,4,mask5.jpg,5,mask2.jpg,2,0,0,0,0,0,0,0,0,0,0,0,0,0,0,0,0
1,testBlock,centre_mouse,2,26,reveal,im0000041.jpg,N_1.png,1,N_2.png,2,N_3.png,3,N_4.png,4,Y_1.png,1,Y_2.png,2,Y_3.png,3,Y_4.png,4,confidence.png,1,guessing.png,2,respond_yes.png,3,respond_no.png,4,Word 0 of 40,1,Image 1 of 5,1,reveal.png,5
1,testBlock,present_trial,3,65,yes_3,im0000056.jpg,N_1.png,1,N_2.png,2,N_3.png,3,N_4.png,4,Y_1.png,1,Y_2.png,2,Y_3.png,3,Y_4.png,4,confidence.png,1,guessing.png,2,respond_yes.png,3,respond_no.png,4,Word 1 of 40,1,Image 1 of 5,1,building,1
1,testBlock,centre_mouse,4,54,reveal,im0000056.jpg,N_1.png,1,N_2.png,2,N_3.png,3,N_4.png,4,Y_1.png,1,Y_2.png,2,Y_3.png,3,Y_4.png,4,confidence.png,1,guessing.png,2,respond_yes.png,3,respond_no.png,4,Word 1 of 40,1,Image 1 of 5,1,reveal.png,5
1,testBlock,present_trial,5,35,yes_4,im0000056.jpg,N_1.png,1,N_2.png,2,N_3.png,3,N_4.png,4,Y_1.png,1,Y_2.png,2,Y_3.png,3,Y_4.png,4,confidence.png,1,guessing.png,2,respond_yes.png,3,respond_no.png,4,Word 2 of 40,1,Image 1 of 5,1,city,2
1,testBlock,centre_mouse,6,45,reveal,im0000056.jpg,N_1.png,1,N_2.png,2,N_3.png,3,N_4.png,4,Y_1.png,1,Y_2.png,2,Y_3.png,3,Y_4.png,4,confidence.png,1,guessing.png,2,respond_yes.png,3,respond_no.png,4,Word 2 of 40,1,Image 1 of 5,1,reveal.png,5
1,testBlock,present_trial,7,41,yes_4,im0000056.jpg,N_1.png,1,N_2.png,2,N_3.png,3,N_4.png,4,Y_1.png,1,Y_2.png,2,Y_3.png,3,Y_4.png,4,confidence.png,1,guessing.png,2,respond_yes.png,3,respond_no.png,4,Word 3 of 40,1,Image 1 of 5,1,tree,8
1,testBlock,centre_mouse,8,54,reveal,im0000056.jpg,N_1.png,1,N_2.png,2,N_3.png,3,N_4.png,4,Y_1.png,1,Y_2.png,2,Y_3.png,3,Y_4.png,4,confidence.png,1,guessing.png,2,respond_yes.png,3,respond_no.png,4,Word 3 of 40,1,Image 1 of 5,1,reveal.png,5
1,testBlock,absent_trial,9,52,no_4,im0000056.jpg,N_1.png,1,N_2.png,2,N_3.png,3,N_4.png,4,Y_1.png,1,Y_2.png,2,Y_3.png,3,Y_4.png,4,confidence.png,1,guessing.png,2,respond_yes.png,3,respond_no.png,4,Word 4 of 40,1,Image 1 of 5,1,sunlight,9
1,testBlock,centre_mouse,10,42,reveal,im0000056.jpg,N_1.png,1,N_2.png,2,N_3.png,3,N_4.png,4,Y_1.png,1,Y_2.png,2,Y_3.png,3,Y_4.png,4,confidence.png,1,guessing.png,2,respond_yes.png,3,respond_no.png,4,Word 4 of 40,1,Image 1 of 5,1,reveal.png,5
1,testBlock,absent_trial,11,56,no_3,im0000056.jpg,N_1.png,1,N_2.png,2,N_3.png,3,N_4.png,4,Y_1.png,1,Y_2.png,2,Y_3.png,3,Y_4.png,4,confidence.png,1,guessing.png,2,respond_yes.png,3,respond_no.png,4,Word 5 of 40,1,Image 1 of 5,1,road,35
1,testBlock,centre_mouse,12,55,reveal,im0000056.jpg,N_1.png,1,N_2.png,2,N_3.png,3,N_4.png,4,Y_1.png,1,Y_2.png,2,Y_3.png,3,Y_4.png,4,confidence.png,1,guessing.png,2,respond_yes.png,3,respond_no.png,4,Word 5 of 40,1,Image 1 of 5,1,reveal.png,5
1,testBlock,absent_trial,13,47,no_4,im0000056.jpg,N_1.png,1,N_2.png,2,N_3.png,3,N_4.png,4,Y_1.png,1,Y_2.png,2,Y_3.png,3,Y_4.png,4,confidence.png,1,guessing.png,2,respond_yes.png,3,respond_no.png,4,Word 6 of 40,1,Image 1 of 5,1,toad,32
1,testBlock,centre_mouse,14,59,reveal,im0000056.jpg,N_1.png,1,N_2.png,2,N_3.png,3,N_4.png,4,Y_1.png,1,Y_2.png,2,Y_3.png,3,Y_4.png,4,confidence.png,1,guessing.png,2,respond_yes.png,3,respond_no.png,4,Word 6 of 40,1,Image 1 of 5,1,reveal.png,5
1,testBlock,absent_trial,15,37,no_3,im0000056.jpg,N_1.png,1,N_2.png,2,N_3.png,3,N_4.png,4,Y_1.png,1,Y_2.png,2,Y_3.png,3,Y_4.png,4,confidence.png,1,guessing.png,2,respond_yes.png,3,respond_no.png,4,Word 7 of 40,1,Image 1 of 5,1,gross,18
1,testBlock,centre_mouse,16,54,reveal,im0000056.jpg,N_1.png,1,N_2.png,2,N_3.png,3,N_4.png,4,Y_1.png,1,Y_2.png,2,Y_3.png,3,Y_4.png,4,confidence.png,1,guessing.png,2,respond_yes.png,3,respond_no.png,4,Word 7 of 40,1,Image 1 of 5,1,reveal.png,5
1,testBlock,present_trial,17,21,no_4,im0000056.jpg,N_1.png,1,N_2.png,2,N_3.png,3,N_4.png,4,Y_1.png,1,Y_2.png,2,Y_3.png,3,Y_4.png,4,confidence.png,1,guessing.png,2,respond_yes.png,3,respond_no.png,4,Word 8 of 40,1,Image 1 of 5,1,skyline,10
1,testBlock,centre_mouse,18,37,reveal,im0000056.jpg,N_1.png,1,N_2.png,2,N_3.png,3,N_4.png,4,Y_1.png,1,Y_2.png,2,Y_3.png,3,Y_4.png,4,confidence.png,1,guessing.png,2,respond_yes.png,3,respond_no.png,4,Word 8 of 40,1,Image 1 of 5,1,reveal.png,5
1,testBlock,present_trial,19,48,no_1,im0000056.jpg,N_1.png,1,N_2.png,2,N_3.png,3,N_4.png,4,Y_1.png,1,Y_2.png,2,Y_3.png,3,Y_4.png,4,confidence.png,1,guessing.png,2,respond_yes.png,3,respond_no.png,4,Word 9 of 40,1,Image 1 of 5,1,people,5
1,testBlock,centre_mouse,20,37,reveal,im0000056.jpg,N_1.png,1,N_2.png,2,N_3.png,3,N_4.png,4,Y_1.png,1,Y_2.png,2,Y_3.png,3,Y_4.png,4,confidence.png,1,guessing.png,2,respond_yes.png,3,respond_no.png,4,Word 9 of 40,1,Image 1 of 5,1,reveal.png,5
1,testBlock,present_trial,21,28,yes_4,im0000056.jpg,N_1.png,1,N_2.png,2,N_3.png,3,N_4.png,4,Y_1.png,1,Y_2.png,2,Y_3.png,3,Y_4.png,4,confidence.png,1,guessing.png,2,respond_yes.png,3,respond_no.png,4,Word 10 of 40,1,Image 1 of 5,1,foreign,20
1,testBlock,centre_mouse,22,53,reveal,im0000056.jpg,N_1.png,1,N_2.png,2,N_3.png,3,N_4.png,4,Y_1.png,1,Y_2.png,2,Y_3.png,3,Y_4.png,4,confidence.png,1,guessing.png,2,respond_yes.png,3,respond_no.png,4,Word 10 of 40,1,Image 1 of 5,1,reveal.png,5
1,testBlock,absent_trial,23,46,no_4,im0000056.jpg,N_1.png,1,N_2.png,2,N_3.png,3,N_4.png,4,Y_1.png,1,Y_2.png,2,Y_3.png,3,Y_4.png,4,confidence.png,1,guessing.png,2,respond_yes.png,3,respond_no.png,4,Word 11 of 40,1,Image 1 of 5,1,plan,27
1,testBlock,centre_mouse,24,53,reveal,im0000056.jpg,N_1.png,1,N_2.png,2,N_3.png,3,N_4.png,4,Y_1.png,1,Y_2.png,2,Y_3.png,3,Y_4.png,4,confidence.png,1,guessing.png,2,respond_yes.png,3,respond_no.png,4,Word 11 of 40,1,Image 1 of 5,1,reveal.png,5
1,testBlock,absent_trial,25,55,no_3,im0000056.jpg,N_1.png,1,N_2.png,2,N_3.png,3,N_4.png,4,Y_1.png,1,Y_2.png,2,Y_3.png,3,Y_4.png,4,confidence.png,1,guessing.png,2,respond_yes.png,3,respond_no.png,4,Word 12 of 40,1,Image 1 of 5,1,girl,37
1,testBlock,centre_mouse,26,43,reveal,im0000056.jpg,N_1.png,1,N_2.png,2,N_3.png,3,N_4.png,4,Y_1.png,1,Y_2.png,2,Y_3.png,3,Y_4.png,4,confidence.png,1,guessing.png,2,respond_yes.png,3,respond_no.png,4,Word 12 of 40,1,Image 1 of 5,1,reveal.png,5
1,testBlock,present_trial,27,55,yes_1,im0000056.jpg,N_1.png,1,N_2.png,2,N_3.png,3,N_4.png,4,Y_1.png,1,Y_2.png,2,Y_3.png,3,Y_4.png,4,confidence.png,1,guessing.png,2,respond_yes.png,3,respond_no.png,4,Word 13 of 40,1,Image 1 of 5,1,river,12
1,testBlock,centre_mouse,28,33,reveal,im0000056.jpg,N_1.png,1,N_2.png,2,N_3.png,3,N_4.png,4,Y_1.png,1,Y_2.png,2,Y_3.png,3,Y_4.png,4,confidence.png,1,guessing.png,2,respond_yes.png,3,respond_no.png,4,Word 13 of 40,1,Image 1 of 5,1,reveal.png,5
1,testBlock,present_trial,29,48,yes_1,im0000056.jpg,N_1.png,1,N_2.png,2,N_3.png,3,N_4.png,4,Y_1.png,1,Y_2.png,2,Y_3.png,3,Y_4.png,4,confidence.png,1,guessing.png,2,respond_yes.png,3,respond_no.png,4,Word 14 of 40,1,Image 1 of 5,1,concrete,18
1,testBlock,centre_mouse,30,44,reveal,im0000056.jpg,N_1.png,1,N_2.png,2,N_3.png,3,N_4.png,4,Y_1.png,1,Y_2.png,2,Y_3.png,3,Y_4.png,4,confidence.png,1,guessing.png,2,respond_yes.png,3,respond_no.png,4,Word 14 of 40,1,Image 1 of 5,1,reveal.png,5
1,testBlock,absent_trial,31,45,no_4,im0000056.jpg,N_1.png,1,N_2.png,2,N_3.png,3,N_4.png,4,Y_1.png,1,Y_2.png,2,Y_3.png,3,Y_4.png,4,confidence.png,1,guessing.png,2,respond_yes.png,3,respond_no.png,4,Word 15 of 40,1,Image 1 of 5,1,help,23
1,testBlock,centre_mouse,32,31,reveal,im0000056.jpg,N_1.png,1,N_2.png,2,N_3.png,3,N_4.png,4,Y_1.png,1,Y_2.png,2,Y_3.png,3,Y_4.png,4,confidence.png,1,guessing.png,2,respond_yes.png,3,respond_no.png,4,Word 15 of 40,1,Image 1 of 5,1,reveal.png,5
1,testBlock,absent_trial,33,59,no_4,im0000056.jpg,N_1.png,1,N_2.png,2,N_3.png,3,N_4.png,4,Y_1.png,1,Y_2.png,2,Y_3.png,3,Y_4.png,4,confidence.png,1,guessing.png,2,respond_yes.png,3,respond_no.png,4,Word 16 of 40,1,Image 1 of 5,1,ship,34
1,testBlock,centre_mouse,34,60,reveal,im0000056.jpg,N_1.png,1,N_2.png,2,N_3.png,3,N_4.png,4,Y_1.png,1,Y_2.png,2,Y_3.png,3,Y_4.png,4,confidence.png,1,guessing.png,2,respond_yes.png,3,respond_no.png,4,Word 16 of 40,1,Image 1 of 5,1,reveal.png,5
1,testBlock,present_trial,35,30,yes_3,im0000056.jpg,N_1.png,1,N_2.png,2,N_3.png,3,N_4.png,4,Y_1.png,1,Y_2.png,2,Y_3.png,3,Y_4.png,4,confidence.png,1,guessing.png,2,respond_yes.png,3,respond_no.png,4,Word 17 of 40,1,Image 1 of 5,1,sunny-day,15
1,testBlock,centre_mouse,36,62,reveal,im0000056.jpg,N_1.png,1,N_2.png,2,N_3.png,3,N_4.png,4,Y_1.png,1,Y_2.png,2,Y_3.png,3,Y_4.png,4,confidence.png,1,guessing.png,2,respond_yes.png,3,respond_no.png,4,Word 17 of 40,1,Image 1 of 5,1,reveal.png,5
1,testBlock,absent_trial,37,46,no_2,im0000056.jpg,N_1.png,1,N_2.png,2,N_3.png,3,N_4.png,4,Y_1.png,1,Y_2.png,2,Y_3.png,3,Y_4.png,4,confidence.png,1,guessing.png,2,respond_yes.png,3,respond_no.png,4,Word 18 of 40,1,Image 1 of 5,1,stand,39
1,testBlock,centre_mouse,38,29,reveal,im0000056.jpg,N_1.png,1,N_2.png,2,N_3.png,3,N_4.png,4,Y_1.png,1,Y_2.png,2,Y_3.png,3,Y_4.png,4,confidence.png,1,guessing.png,2,respond_yes.png,3,respond_no.png,4,Word 18 of 40,1,Image 1 of 5,1,reveal.png,5
1,testBlock,catch_present_trial,39,33,yes_3,im0000056.jpg,N_1.png,1,N_2.png,2,N_3.png,3,N_4.png,4,Y_1.png,1,Y_2.png,2,Y_3.png,3,Y_4.png,4,confidence.png,1,guessing.png,2,respond_yes.png,3,respond_no.png,4,Word 18 of 40,1,Image 1 of 5,1,PRESS: Yes 4,4
1,testBlock,centre_mouse,40,34,reveal,im0000056.jpg,N_1.png,1,N_2.png,2,N_3.png,3,N_4.png,4,Y_1.png,1,Y_2.png,2,Y_3.png,3,Y_4.png,4,confidence.png,1,guessing.png,2,respond_yes.png,3,respond_no.png,4,Word 18 of 40,1,Image 1 of 5,1,reveal.png,5
1,testBlock,absent_trial,41,40,no_4,im0000056.jpg,N_1.png,1,N_2.png,2,N_3.png,3,N_4.png,4,Y_1.png,1,Y_2.png,2,Y_3.png,3,Y_4.png,4,confidence.png,1,guessing.png,2,respond_yes.png,3,respond_no.png,4,Word 19 of 40,1,Image 1 of 5,1,pathway,29
1,testBlock,centre_mouse,42,49,reveal,im0000056.jpg,N_1.png,1,N_2.png,2,N_3.png,3,N_4.png,4,Y_1.png,1,Y_2.png,2,Y_3.png,3,Y_4.png,4,confidence.png,1,guessing.png,2,respond_yes.png,3,respond_no.png,4,Word 19 of 40,1,Image 1 of 5,1,reveal.png,5
1,testBlock,present_trial,43,48,yes_2,im0000056.jpg,N_1.png,1,N_2.png,2,N_3.png,3,N_4.png,4,Y_1.png,1,Y_2.png,2,Y_3.png,3,Y_4.png,4,confidence.png,1,guessing.png,2,respond_yes.png,3,respond_no.png,4,Word 20 of 40,1,Image 1 of 5,1,water,3
1,testBlock,centre_mouse,44,45,reveal,im0000056.jpg,N_1.png,1,N_2.png,2,N_3.png,3,N_4.png,4,Y_1.png,1,Y_2.png,2,Y_3.png,3,Y_4.png,4,confidence.png,1,guessing.png,2,respond_yes.png,3,respond_no.png,4,Word 20 of 40,1,Image 1 of 5,1,reveal.png,5
1,testBlock,absent_trial,45,49,yes_4,im0000056.jpg,N_1.png,1,N_2.png,2,N_3.png,3,N_4.png,4,Y_1.png,1,Y_2.png,2,Y_3.png,3,Y_4.png,4,confidence.png,1,guessing.png,2,respond_yes.png,3,respond_no.png,4,Word 21 of 40,1,Image 1 of 5,1,oil-pump,33
1,testBlock,centre_mouse,46,42,reveal,im0000056.jpg,N_1.png,1,N_2.png,2,N_3.png,3,N_4.png,4,Y_1.png,1,Y_2.png,2,Y_3.png,3,Y_4.png,4,confidence.png,1,guessing.png,2,respond_yes.png,3,respond_no.png,4,Word 21 of 40,1,Image 1 of 5,1,reveal.png,5
1,testBlock,present_trial,47,21,yes_4,im0000056.jpg,N_1.png,1,N_2.png,2,N_3.png,3,N_4.png,4,Y_1.png,1,Y_2.png,2,Y_3.png,3,Y_4.png,4,confidence.png,1,guessing.png,2,respond_yes.png,3,respond_no.png,4,Word 22 of 40,1,Image 1 of 5,1,park,17
1,testBlock,centre_mouse,48,29,reveal,im0000056.jpg,N_1.png,1,N_2.png,2,N_3.png,3,N_4.png,4,Y_1.png,1,Y_2.png,2,Y_3.png,3,Y_4.png,4,confidence.png,1,guessing.png,2,respond_yes.png,3,respond_no.png,4,Word 22 of 40,1,Image 1 of 5,1,reveal.png,5
1,testBlock,present_trial,49,51,yes_2,im0000056.jpg,N_1.png,1,N_2.png,2,N_3.png,3,N_4.png,4,Y_1.png,1,Y_2.png,2,Y_3.png,3,Y_4.png,4,confidence.png,1,guessing.png,2,respond_yes.png,3,respond_no.png,4,Word 23 of 40,1,Image 1 of 5,1,sea,6
1,testBlock,centre_mouse,50,61,reveal,im0000056.jpg,N_1.png,1,N_2.png,2,N_3.png,3,N_4.png,4,Y_1.png,1,Y_2.png,2,Y_3.png,3,Y_4.png,4,confidence.png,1,guessing.png,2,respond_yes.png,3,respond_no.png,4,Word 23 of 40,1,Image 1 of 5,1,reveal.png,5
1,testBlock,absent_trial,51,39,no_2,im0000056.jpg,N_1.png,1,N_2.png,2,N_3.png,3,N_4.png,4,Y_1.png,1,Y_2.png,2,Y_3.png,3,Y_4.png,4,confidence.png,1,guessing.png,2,respond_yes.png,3,respond_no.png,4,Word 24 of 40,1,Image 1 of 5,1,adult,15
1,testBlock,centre_mouse,52,50,reveal,im0000056.jpg,N_1.png,1,N_2.png,2,N_3.png,3,N_4.png,4,Y_1.png,1,Y_2.png,2,Y_3.png,3,Y_4.png,4,confidence.png,1,guessing.png,2,respond_yes.png,3,respond_no.png,4,Word 24 of 40,1,Image 1 of 5,1,reveal.png,5
1,testBlock,present_trial,53,45,yes_3,im0000056.jpg,N_1.png,1,N_2.png,2,N_3.png,3,N_4.png,4,Y_1.png,1,Y_2.png,2,Y_3.png,3,Y_4.png,4,confidence.png,1,guessing.png,2,respond_yes.png,3,respond_no.png,4,Word 25 of 40,1,Image 1 of 5,1,daytime,9
1,testBlock,centre_mouse,54,41,reveal,im0000056.jpg,N_1.png,1,N_2.png,2,N_3.png,3,N_4.png,4,Y_1.png,1,Y_2.png,2,Y_3.png,3,Y_4.png,4,confidence.png,1,guessing.png,2,respond_yes.png,3,respond_no.png,4,Word 25 of 40,1,Image 1 of 5,1,reveal.png,5
1,testBlock,absent_trial,55,46,yes_3,im0000056.jpg,N_1.png,1,N_2.png,2,N_3.png,3,N_4.png,4,Y_1.png,1,Y_2.png,2,Y_3.png,3,Y_4.png,4,confidence.png,1,guessing.png,2,respond_yes.png,3,respond_no.png,4,Word 26 of 40,1,Image 1 of 5,1,admire,31
1,testBlock,centre_mouse,56,61,reveal,im0000056.jpg,N_1.png,1,N_2.png,2,N_3.png,3,N_4.png,4,Y_1.png,1,Y_2.png,2,Y_3.png,3,Y_4.png,4,confidence.png,1,guessing.png,2,respond_yes.png,3,respond_no.png,4,Word 26 of 40,1,Image 1 of 5,1,reveal.png,5
1,testBlock,catch_absent_trial,57,53,yes_1,im0000056.jpg,N_1.png,1,N_2.png,2,N_3.png,3,N_4.png,4,Y_1.png,1,Y_2.png,2,Y_3.png,3,Y_4.png,4,confidence.png,1,guessing.png,2,respond_yes.png,3,respond_no.png,4,Word 26 of 40,1,Image 1 of 5,1,PRESS: No 1,1
1,testBlock,centre_mouse,58,29,reveal,im0000056.jpg,N_1.png,1,N_2.png,2,N_3.png,3,N_4.png,4,Y_1.png,1,Y_2.png,2,Y_3.png,3,Y_4.png,4,confidence.png,1,guessing.png,2,respond_yes.png,3,respond_no.png,4,Word 26 of 40,1,Image 1 of 5,1,reveal.png,5
1,testBlock,absent_trial,59,41,no_3,im0000056.jpg,N_1.png,1,N_2.png,2,N_3.png,3,N_4.png,4,Y_1.png,1,Y_2.png,2,Y_3.png,3,Y_4.png,4,confidence.png,1,guessing.png,2,respond_yes.png,3,respond_no.png,4,Word 27 of 40,1,Image 1 of 5,1,coat,3
1,testBlock,centre_mouse,60,27,reveal,im0000056.jpg,N_1.png,1,N_2.png,2,N_3.png,3,N_4.png,4,Y_1.png,1,Y_2.png,2,Y_3.png,3,Y_4.png,4,confidence.png,1,guessing.png,2,respond_yes.png,3,respond_no.png,4,Word 27 of 40,1,Image 1 of 5,1,reveal.png,5
1,testBlock,absent_trial,61,32,yes_4,im0000056.jpg,N_1.png,1,N_2.png,2,N_3.png,3,N_4.png,4,Y_1.png,1,Y_2.png,2,Y_3.png,3,Y_4.png,4,confidence.png,1,guessing.png,2,respond_yes.png,3,respond_no.png,4,Word 28 of 40,1,Image 1 of 5,1,gaze,36
1,testBlock,centre_mouse,62,56,reveal,im0000056.jpg,N_1.png,1,N_2.png,2,N_3.png,3,N_4.png,4,Y_1.png,1,Y_2.png,2,Y_3.png,3,Y_4.png,4,confidence.png,1,guessing.png,2,respond_yes.png,3,respond_no.png,4,Word 28 of 40,1,Image 1 of 5,1,reveal.png,5
1,testBlock,present_trial,63,61,yes_4,im0000056.jpg,N_1.png,1,N_2.png,2,N_3.png,3,N_4.png,4,Y_1.png,1,Y_2.png,2,Y_3.png,3,Y_4.png,4,confidence.png,1,guessing.png,2,respond_yes.png,3,respond_no.png,4,Word 29 of 40,1,Image 1 of 5,1,crowd,11
1,testBlock,centre_mouse,64,31,reveal,im0000056.jpg,N_1.png,1,N_2.png,2,N_3.png,3,N_4.png,4,Y_1.png,1,Y_2.png,2,Y_3.png,3,Y_4.png,4,confidence.png,1,guessing.png,2,respond_yes.png,3,respond_no.png,4,Word 29 of 40,1,Image 1 of 5,1,reveal.png,5
1,testBlock,present_trial,65,54,no_1,im0000056.jpg,N_1.png,1,N_2.png,2,N_3.png,3,N_4.png,4,Y_1.png,1,Y_2.png,2,Y_3.png,3,Y_4.png,4,confidence.png,1,guessing.png,2,respond_yes.png,3,respond_no.png,4,Word 30 of 40,1,Image 1 of 5,1,build,4
1,testBlock,centre_mouse,66,51,reveal,im0000056.jpg,N_1.png,1,N_2.png,2,N_3.png,3,N_4.png,4,Y_1.png,1,Y_2.png,2,Y_3.png,3,Y_4.png,4,confidence.png,1,guessing.png,2,respond_yes.png,3,respond_no.png,4,Word 30 of 40,1,Image 1 of 5,1,reveal.png,5
1,testBlock,present_trial,67,49,yes_3,im0000056.jpg,N_1.png,1,N_2.png,2,N_3.png,3,N_4.png,4,Y_1.png,1,Y_2.png,2,Y_3.png,3,Y_4.png,4,confidence.png,1,guessing.png,2,respond_yes.png,3,respond_no.png,4,Word 31 of 40,1,Image 1 of 5,1,sky,7
1,testBlock,centre_mouse,68,45,reveal,im0000056.jpg,N_1.png,1,N_2.png,2,N_3.png,3,N_4.png,4,Y_1.png,1,Y_2.png,2,Y_3.png,3,Y_4.png,4,confidence.png,1,guessing.png,2,respond_yes.png,3,respond_no.png,4,Word 31 of 40,1,Image 1 of 5,1,reveal.png,5
1,testBlock,absent_trial,69,40,no_3,im0000056.jpg,N_1.png,1,N_2.png,2,N_3.png,3,N_4.png,4,Y_1.png,1,Y_2.png,2,Y_3.png,3,Y_4.png,4,confidence.png,1,guessing.png,2,respond_yes.png,3,respond_no.png,4,Word 32 of 40,1,Image 1 of 5,1,horse,2
1,testBlock,centre_mouse,70,40,reveal,im0000056.jpg,N_1.png,1,N_2.png,2,N_3.png,3,N_4.png,4,Y_1.png,1,Y_2.png,2,Y_3.png,3,Y_4.png,4,confidence.png,1,guessing.png,2,respond_yes.png,3,respond_no.png,4,Word 32 of 40,1,Image 1 of 5,1,reveal.png,5
1,testBlock,absent_trial,71,43,no_4,im0000056.jpg,N_1.png,1,N_2.png,2,N_3.png,3,N_4.png,4,Y_1.png,1,Y_2.png,2,Y_3.png,3,Y_4.png,4,confidence.png,1,guessing.png,2,respond_yes.png,3,respond_no.png,4,Word 33 of 40,1,Image 1 of 5,1,old,4
1,testBlock,centre_mouse,72,55,reveal,im0000056.jpg,N_1.png,1,N_2.png,2,N_3.png,3,N_4.png,4,Y_1.png,1,Y_2.png,2,Y_3.png,3,Y_4.png,4,confidence.png,1,guessing.png,2,respond_yes.png,3,respond_no.png,4,Word 33 of 40,1,Image 1 of 5,1,reveal.png,5
1,testBlock,absent_trial,73,51,no_4,im0000056.jpg,N_1.png,1,N_2.png,2,N_3.png,3,N_4.png,4,Y_1.png,1,Y_2.png,2,Y_3.png,3,Y_4.png,4,confidence.png,1,guessing.png,2,respond_yes.png,3,respond_no.png,4,Word 34 of 40,1,Image 1 of 5,1,blue-hat,6
1,testBlock,centre_mouse,74,50,reveal,im0000056.jpg,N_1.png,1,N_2.png,2,N_3.png,3,N_4.png,4,Y_1.png,1,Y_2.png,2,Y_3.png,3,Y_4.png,4,confidence.png,1,guessing.png,2,respond_yes.png,3,respond_no.png,4,Word 34 of 40,1,Image 1 of 5,1,reveal.png,5
1,testBlock,absent_trial,75,38,no_3,im0000056.jpg,N_1.png,1,N_2.png,2,N_3.png,3,N_4.png,4,Y_1.png,1,Y_2.png,2,Y_3.png,3,Y_4.png,4,confidence.png,1,guessing.png,2,respond_yes.png,3,respond_no.png,4,Word 35 of 40,1,Image 1 of 5,1,table,11
1,testBlock,centre_mouse,76,36,reveal,im0000056.jpg,N_1.png,1,N_2.png,2,N_3.png,3,N_4.png,4,Y_1.png,1,Y_2.png,2,Y_3.png,3,Y_4.png,4,confidence.png,1,guessing.png,2,respond_yes.png,3,respond_no.png,4,Word 35 of 40,1,Image 1 of 5,1,reveal.png,5
1,testBlock,present_trial,77,66,no_3,im0000056.jpg,N_1.png,1,N_2.png,2,N_3.png,3,N_4.png,4,Y_1.png,1,Y_2.png,2,Y_3.png,3,Y_4.png,4,confidence.png,1,guessing.png,2,respond_yes.png,3,respond_no.png,4,Word 36 of 40,1,Image 1 of 5,1,nice,16
1,testBlock,centre_mouse,78,53,reveal,im0000056.jpg,N_1.png,1,N_2.png,2,N_3.png,3,N_4.png,4,Y_1.png,1,Y_2.png,2,Y_3.png,3,Y_4.png,4,confidence.png,1,guessing.png,2,respond_yes.png,3,respond_no.png,4,Word 36 of 40,1,Image 1 of 5,1,reveal.png,5
1,testBlock,present_trial,79,55,yes_1,im0000056.jpg,N_1.png,1,N_2.png,2,N_3.png,3,N_4.png,4,Y_1.png,1,Y_2.png,2,Y_3.png,3,Y_4.png,4,confidence.png,1,guessing.png,2,respond_yes.png,3,respond_no.png,4,Word 37 of 40,1,Image 1 of 5,1,skyscraper,13
1,testBlock,centre_mouse,80,54,reveal,im0000056.jpg,N_1.png,1,N_2.png,2,N_3.png,3,N_4.png,4,Y_1.png,1,Y_2.png,2,Y_3.png,3,Y_4.png,4,confidence.png,1,guessing.png,2,respond_yes.png,3,respond_no.png,4,Word 37 of 40,1,Image 1 of 5,1,reveal.png,5
1,testBlock,present_trial,81,47,no_3,im0000056.jpg,N_1.png,1,N_2.png,2,N_3.png,3,N_4.png,4,Y_1.png,1,Y_2.png,2,Y_3.png,3,Y_4.png,4,confidence.png,1,guessing.png,2,respond_yes.png,3,respond_no.png,4,Word 38 of 40,1,Image 1 of 5,1,urban,19
1,testBlock,centre_mouse,82,67,reveal,im0000056.jpg,N_1.png,1,N_2.png,2,N_3.png,3,N_4.png,4,Y_1.png,1,Y_2.png,2,Y_3.png,3,Y_4.png,4,confidence.png,1,guessing.png,2,respond_yes.png,3,respond_no.png,4,Word 38 of 40,1,Image 1 of 5,1,reveal.png,5
1,testBlock,absent_trial,83,32,no_4,im0000056.jpg,N_1.png,1,N_2.png,2,N_3.png,3,N_4.png,4,Y_1.png,1,Y_2.png,2,Y_3.png,3,Y_4.png,4,confidence.png,1,guessing.png,2,respond_yes.png,3,respond_no.png,4,Word 39 of 40,1,Image 1 of 5,1,stand,5
1,testBlock,centre_mouse,84,47,reveal,im0000056.jpg,N_1.png,1,N_2.png,2,N_3.png,3,N_4.png,4,Y_1.png,1,Y_2.png,2,Y_3.png,3,Y_4.png,4,confidence.png,1,guessing.png,2,respond_yes.png,3,respond_no.png,4,Word 39 of 40,1,Image 1 of 5,1,reveal.png,5
1,testBlock,present_trial,85,69,no_3,im0000056.jpg,N_1.png,1,N_2.png,2,N_3.png,3,N_4.png,4,Y_1.png,1,Y_2.png,2,Y_3.png,3,Y_4.png,4,confidence.png,1,guessing.png,2,respond_yes.png,3,respond_no.png,4,Word 40 of 40,1,Image 1 of 5,1,flat,14
1,testBlock,centre_mouse,86,42,reveal,im0000056.jpg,N_1.png,1,N_2.png,2,N_3.png,3,N_4.png,4,Y_1.png,1,Y_2.png,2,Y_3.png,3,Y_4.png,4,confidence.png,1,guessing.png,2,respond_yes.png,3,respond_no.png,4,Word 40 of 40,1,Image 1 of 5,1,reveal.png,5
1,testBlock,test,1,1,0,im0000056.jpg,+,1,im0000050.jpg,2,mask1.jpg,1,mask2.jpg,2,mask3.jpg,3,mask4.jpg,4,mask3.jpg,3,0,0,0,0,0,0,0,0,0,0,0,0,0,0,0,0
1,testBlock,centre_mouse,2,56,reveal,im0000056.jpg,N_1.png,1,N_2.png,2,N_3.png,3,N_4.png,4,Y_1.png,1,Y_2.png,2,Y_3.png,3,Y_4.png,4,confidence.png,1,guessing.png,2,respond_yes.png,3,respond_no.png,4,Word 0 of 40,1,Image 2 of 5,1,reveal.png,5
1,testBlock,present_trial,3,18,yes_3,im0000050.jpg,N_1.png,1,N_2.png,2,N_3.png,3,N_4.png,4,Y_1.png,1,Y_2.png,2,Y_3.png,3,Y_4.png,4,confidence.png,1,guessing.png,2,respond_yes.png,3,respond_no.png,4,Word 1 of 40,1,Image 2 of 5,1,banana,10
1,testBlock,centre_mouse,4,57,reveal,im0000050.jpg,N_1.png,1,N_2.png,2,N_3.png,3,N_4.png,4,Y_1.png,1,Y_2.png,2,Y_3.png,3,Y_4.png,4,confidence.png,1,guessing.png,2,respond_yes.png,3,respond_no.png,4,Word 1 of 40,1,Image 2 of 5,1,reveal.png,5
1,testBlock,present_trial,5,51,yes_3,im0000050.jpg,N_1.png,1,N_2.png,2,N_3.png,3,N_4.png,4,Y_1.png,1,Y_2.png,2,Y_3.png,3,Y_4.png,4,confidence.png,1,guessing.png,2,respond_yes.png,3,respond_no.png,4,Word 2 of 40,1,Image 2 of 5,1,city,15
1,testBlock,centre_mouse,6,40,reveal,im0000050.jpg,N_1.png,1,N_2.png,2,N_3.png,3,N_4.png,4,Y_1.png,1,Y_2.png,2,Y_3.png,3,Y_4.png,4,confidence.png,1,guessing.png,2,respond_yes.png,3,respond_no.png,4,Word 2 of 40,1,Image 2 of 5,1,reveal.png,5
1,testBlock,present_trial,7,43,yes_1,im0000050.jpg,N_1.png,1,N_2.png,2,N_3.png,3,N_4.png,4,Y_1.png,1,Y_2.png,2,Y_3.png,3,Y_4.png,4,confidence.png,1,guessing.png,2,respond_yes.png,3,respond_no.png,4,Word 3 of 40,1,Image 2 of 5,1,human,17
1,testBlock,centre_mouse,8,40,reveal,im0000050.jpg,N_1.png,1,N_2.png,2,N_3.png,3,N_4.png,4,Y_1.png,1,Y_2.png,2,Y_3.png,3,Y_4.png,4,confidence.png,1,guessing.png,2,respond_yes.png,3,respond_no.png,4,Word 3 of 40,1,Image 2 of 5,1,reveal.png,5
1,testBlock,present_trial,9,33,yes_4,im0000050.jpg,N_1.png,1,N_2.png,2,N_3.png,3,N_4.png,4,Y_1.png,1,Y_2.png,2,Y_3.png,3,Y_4.png,4,confidence.png,1,guessing.png,2,respond_yes.png,3,respond_no.png,4,Word 4 of 40,1,Image 2 of 5,1,market,5
1,testBlock,centre_mouse,10,43,reveal,im0000050.jpg,N_1.png,1,N_2.png,2,N_3.png,3,N_4.png,4,Y_1.png,1,Y_2.png,2,Y_3.png,3,Y_4.png,4,confidence.png,1,guessing.png,2,respond_yes.png,3,respond_no.png,4,Word 4 of 40,1,Image 2 of 5,1,reveal.png,5
1,testBlock,absent_trial,11,37,no_4,im0000050.jpg,N_1.png,1,N_2.png,2,N_3.png,3,N_4.png,4,Y_1.png,1,Y_2.png,2,Y_3.png,3,Y_4.png,4,confidence.png,1,guessing.png,2,respond_yes.png,3,respond_no.png,4,Word 5 of 40,1,Image 2 of 5,1,construction,16
1,testBlock,centre_mouse,12,55,reveal,im0000050.jpg,N_1.png,1,N_2.png,2,N_3.png,3,N_4.png,4,Y_1.png,1,Y_2.png,2,Y_3.png,3,Y_4.png,4,confidence.png,1,guessing.png,2,respond_yes.png,3,respond_no.png,4,Word 5 of 40,1,Image 2 of 5,1,reveal.png,5
1,testBlock,absent_trial,13,52,no_1,im0000050.jpg,N_1.png,1,N_2.png,2,N_3.png,3,N_4.png,4,Y_1.png,1,Y_2.png,2,Y_3.png,3,Y_4.png,4,confidence.png,1,guessing.png,2,respond_yes.png,3,respond_no.png,4,Word 6 of 40,1,Image 2 of 5,1,white,23
1,testBlock,centre_mouse,14,51,reveal,im0000050.jpg,N_1.png,1,N_2.png,2,N_3.png,3,N_4.png,4,Y_1.png,1,Y_2.png,2,Y_3.png,3,Y_4.png,4,confidence.png,1,guessing.png,2,respond_yes.png,3,respond_no.png,4,Word 6 of 40,1,Image 2 of 5,1,reveal.png,5
1,testBlock,present_trial,15,35,yes_3,im0000050.jpg,N_1.png,1,N_2.png,2,N_3.png,3,N_4.png,4,Y_1.png,1,Y_2.png,2,Y_3.png,3,Y_4.png,4,confidence.png,1,guessing.png,2,respond_yes.png,3,respond_no.png,4,Word 7 of 40,1,Image 2 of 5,1,lady,18
1,testBlock,centre_mouse,16,56,reveal,im0000050.jpg,N_1.png,1,N_2.png,2,N_3.png,3,N_4.png,4,Y_1.png,1,Y_2.png,2,Y_3.png,3,Y_4.png,4,confidence.png,1,guessing.png,2,respond_yes.png,3,respond_no.png,4,Word 7 of 40,1,Image 2 of 5,1,reveal.png,5
1,testBlock,present_trial,17,43,yes_4,im0000050.jpg,N_1.png,1,N_2.png,2,N_3.png,3,N_4.png,4,Y_1.png,1,Y_2.png,2,Y_3.png,3,Y_4.png,4,confidence.png,1,guessing.png,2,respond_yes.png,3,respond_no.png,4,Word 8 of 40,1,Image 2 of 5,1,man,1
1,testBlock,centre_mouse,18,49,reveal,im0000050.jpg,N_1.png,1,N_2.png,2,N_3.png,3,N_4.png,4,Y_1.png,1,Y_2.png,2,Y_3.png,3,Y_4.png,4,confidence.png,1,guessing.png,2,respond_yes.png,3,respond_no.png,4,Word 8 of 40,1,Image 2 of 5,1,reveal.png,5
1,testBlock,absent_trial,19,41,no_4,im0000050.jpg,N_1.png,1,N_2.png,2,N_3.png,3,N_4.png,4,Y_1.png,1,Y_2.png,2,Y_3.png,3,Y_4.png,4,confidence.png,1,guessing.png,2,respond_yes.png,3,respond_no.png,4,Word 9 of 40,1,Image 2 of 5,1,beauty,2
1,testBlock,centre_mouse,20,53,reveal,im0000050.jpg,N_1.png,1,N_2.png,2,N_3.png,3,N_4.png,4,Y_1.png,1,Y_2.png,2,Y_3.png,3,Y_4.png,4,confidence.png,1,guessing.png,2,respond_yes.png,3,respond_no.png,4,Word 9 of 40,1,Image 2 of 5,1,reveal.png,5
1,testBlock,absent_trial,21,30,no_1,im0000050.jpg,N_1.png,1,N_2.png,2,N_3.png,3,N_4.png,4,Y_1.png,1,Y_2.png,2,Y_3.png,3,Y_4.png,4,confidence.png,1,guessing.png,2,respond_yes.png,3,respond_no.png,4,Word 10 of 40,1,Image 2 of 5,1,woman,31
1,testBlock,centre_mouse,22,58,reveal,im0000050.jpg,N_1.png,1,N_2.png,2,N_3.png,3,N_4.png,4,Y_1.png,1,Y_2.png,2,Y_3.png,3,Y_4.png,4,confidence.png,1,guessing.png,2,respond_yes.png,3,respond_no.png,4,Word 10 of 40,1,Image 2 of 5,1,reveal.png,5
1,testBlock,present_trial,23,39,yes_2,im0000050.jpg,N_1.png,1,N_2.png,2,N_3.png,3,N_4.png,4,Y_1.png,1,Y_2.png,2,Y_3.png,3,Y_4.png,4,confidence.png,1,guessing.png,2,respond_yes.png,3,respond_no.png,4,Word 11 of 40,1,Image 2 of 5,1,apple,6
1,testBlock,centre_mouse,24,36,reveal,im0000050.jpg,N_1.png,1,N_2.png,2,N_3.png,3,N_4.png,4,Y_1.png,1,Y_2.png,2,Y_3.png,3,Y_4.png,4,confidence.png,1,guessing.png,2,respond_yes.png,3,respond_no.png,4,Word 11 of 40,1,Image 2 of 5,1,reveal.png,5
1,testBlock,present_trial,25,27,yes_3,im0000050.jpg,N_1.png,1,N_2.png,2,N_3.png,3,N_4.png,4,Y_1.png,1,Y_2.png,2,Y_3.png,3,Y_4.png,4,confidence.png,1,guessing.png,2,respond_yes.png,3,respond_no.png,4,Word 12 of 40,1,Image 2 of 5,1,fruit,2
1,testBlock,centre_mouse,26,72,reveal,im0000050.jpg,N_1.png,1,N_2.png,2,N_3.png,3,N_4.png,4,Y_1.png,1,Y_2.png,2,Y_3.png,3,Y_4.png,4,confidence.png,1,guessing.png,2,respond_yes.png,3,respond_no.png,4,Word 12 of 40,1,Image 2 of 5,1,reveal.png,5
1,testBlock,absent_trial,27,62,no_3,im0000050.jpg,N_1.png,1,N_2.png,2,N_3.png,3,N_4.png,4,Y_1.png,1,Y_2.png,2,Y_3.png,3,Y_4.png,4,confidence.png,1,guessing.png,2,respond_yes.png,3,respond_no.png,4,Word 13 of 40,1,Image 2 of 5,1,insect,40
1,testBlock,centre_mouse,28,35,reveal,im0000050.jpg,N_1.png,1,N_2.png,2,N_3.png,3,N_4.png,4,Y_1.png,1,Y_2.png,2,Y_3.png,3,Y_4.png,4,confidence.png,1,guessing.png,2,respond_yes.png,3,respond_no.png,4,Word 13 of 40,1,Image 2 of 5,1,reveal.png,5
1,testBlock,present_trial,29,37,yes_4,im0000050.jpg,N_1.png,1,N_2.png,2,N_3.png,3,N_4.png,4,Y_1.png,1,Y_2.png,2,Y_3.png,3,Y_4.png,4,confidence.png,1,guessing.png,2,respond_yes.png,3,respond_no.png,4,Word 14 of 40,1,Image 2 of 5,1,shop,3
1,testBlock,centre_mouse,30,46,reveal,im0000050.jpg,N_1.png,1,N_2.png,2,N_3.png,3,N_4.png,4,Y_1.png,1,Y_2.png,2,Y_3.png,3,Y_4.png,4,confidence.png,1,guessing.png,2,respond_yes.png,3,respond_no.png,4,Word 14 of 40,1,Image 2 of 5,1,reveal.png,5
1,testBlock,absent_trial,31,53,yes_3,im0000050.jpg,N_1.png,1,N_2.png,2,N_3.png,3,N_4.png,4,Y_1.png,1,Y_2.png,2,Y_3.png,3,Y_4.png,4,confidence.png,1,guessing.png,2,respond_yes.png,3,respond_no.png,4,Word 15 of 40,1,Image 2 of 5,1,person,10
1,testBlock,centre_mouse,32,46,reveal,im0000050.jpg,N_1.png,1,N_2.png,2,N_3.png,3,N_4.png,4,Y_1.png,1,Y_2.png,2,Y_3.png,3,Y_4.png,4,confidence.png,1,guessing.png,2,respond_yes.png,3,respond_no.png,4,Word 15 of 40,1,Image 2 of 5,1,reveal.png,5
1,testBlock,absent_trial,33,35,no_4,im0000050.jpg,N_1.png,1,N_2.png,2,N_3.png,3,N_4.png,4,Y_1.png,1,Y_2.png,2,Y_3.png,3,Y_4.png,4,confidence.png,1,guessing.png,2,respond_yes.png,3,respond_no.png,4,Word 16 of 40,1,Image 2 of 5,1,cotton-shirt,25
1,testBlock,centre_mouse,34,36,reveal,im0000050.jpg,N_1.png,1,N_2.png,2,N_3.png,3,N_4.png,4,Y_1.png,1,Y_2.png,2,Y_3.png,3,Y_4.png,4,confidence.png,1,guessing.png,2,respond_yes.png,3,respond_no.png,4,Word 16 of 40,1,Image 2 of 5,1,reveal.png,5
1,testBlock,absent_trial,35,26,no_3,im0000050.jpg,N_1.png,1,N_2.png,2,N_3.png,3,N_4.png,4,Y_1.png,1,Y_2.png,2,Y_3.png,3,Y_4.png,4,confidence.png,1,guessing.png,2,respond_yes.png,3,respond_no.png,4,Word 17 of 40,1,Image 2 of 5,1,sky,30
1,testBlock,centre_mouse,36,50,reveal,im0000050.jpg,N_1.png,1,N_2.png,2,N_3.png,3,N_4.png,4,Y_1.png,1,Y_2.png,2,Y_3.png,3,Y_4.png,4,confidence.png,1,guessing.png,2,respond_yes.png,3,respond_no.png,4,Word 17 of 40,1,Image 2 of 5,1,reveal.png,5
1,testBlock,absent_trial,37,42,no_1,im0000050.jpg,N_1.png,1,N_2.png,2,N_3.png,3,N_4.png,4,Y_1.png,1,Y_2.png,2,Y_3.png,3,Y_4.png,4,confidence.png,1,guessing.png,2,respond_yes.png,3,respond_no.png,4,Word 18 of 40,1,Image 2 of 5,1,pole,39
1,testBlock,centre_mouse,38,42,reveal,im0000050.jpg,N_1.png,1,N_2.png,2,N_3.png,3,N_4.png,4,Y_1.png,1,Y_2.png,2,Y_3.png,3,Y_4.png,4,confidence.png,1,guessing.png,2,respond_yes.png,3,respond_no.png,4,Word 18 of 40,1,Image 2 of 5,1,reveal.png,5
1,testBlock,catch_present_trial,39,51,no_1,im0000050.jpg,N_1.png,1,N_2.png,2,N_3.png,3,N_4.png,4,Y_1.png,1,Y_2.png,2,Y_3.png,3,Y_4.png,4,confidence.png,1,guessing.png,2,respond_yes.png,3,respond_no.png,4,Word 18 of 40,1,Image 2 of 5,1,PRESS: Yes 3,3
1,testBlock,centre_mouse,40,41,reveal,im0000050.jpg,N_1.png,1,N_2.png,2,N_3.png,3,N_4.png,4,Y_1.png,1,Y_2.png,2,Y_3.png,3,Y_4.png,4,confidence.png,1,guessing.png,2,respond_yes.png,3,respond_no.png,4,Word 18 of 40,1,Image 2 of 5,1,reveal.png,5
1,testBlock,absent_trial,41,24,yes_2,im0000050.jpg,N_1.png,1,N_2.png,2,N_3.png,3,N_4.png,4,Y_1.png,1,Y_2.png,2,Y_3.png,3,Y_4.png,4,confidence.png,1,guessing.png,2,respond_yes.png,3,respond_no.png,4,Word 19 of 40,1,Image 2 of 5,1,grey-clothes,4
1,testBlock,centre_mouse,42,42,reveal,im0000050.jpg,N_1.png,1,N_2.png,2,N_3.png,3,N_4.png,4,Y_1.png,1,Y_2.png,2,Y_3.png,3,Y_4.png,4,confidence.png,1,guessing.png,2,respond_yes.png,3,respond_no.png,4,Word 19 of 40,1,Image 2 of 5,1,reveal.png,5
1,testBlock,absent_trial,43,42,no_3,im0000050.jpg,N_1.png,1,N_2.png,2,N_3.png,3,N_4.png,4,Y_1.png,1,Y_2.png,2,Y_3.png,3,Y_4.png,4,confidence.png,1,guessing.png,2,respond_yes.png,3,respond_no.png,4,Word 20 of 40,1,Image 2 of 5,1,bundle,7
1,testBlock,centre_mouse,44,28,reveal,im0000050.jpg,N_1.png,1,N_2.png,2,N_3.png,3,N_4.png,4,Y_1.png,1,Y_2.png,2,Y_3.png,3,Y_4.png,4,confidence.png,1,guessing.png,2,respond_yes.png,3,respond_no.png,4,Word 20 of 40,1,Image 2 of 5,1,reveal.png,5
1,testBlock,present_trial,45,38,no_1,im0000050.jpg,N_1.png,1,N_2.png,2,N_3.png,3,N_4.png,4,Y_1.png,1,Y_2.png,2,Y_3.png,3,Y_4.png,4,confidence.png,1,guessing.png,2,respond_yes.png,3,respond_no.png,4,Word 21 of 40,1,Image 2 of 5,1,cap,12
1,testBlock,centre_mouse,46,53,reveal,im0000050.jpg,N_1.png,1,N_2.png,2,N_3.png,3,N_4.png,4,Y_1.png,1,Y_2.png,2,Y_3.png,3,Y_4.png,4,confidence.png,1,guessing.png,2,respond_yes.png,3,respond_no.png,4,Word 21 of 40,1,Image 2 of 5,1,reveal.png,5
1,testBlock,present_trial,47,27,yes_3,im0000050.jpg,N_1.png,1,N_2.png,2,N_3.png,3,N_4.png,4,Y_1.png,1,Y_2.png,2,Y_3.png,3,Y_4.png,4,confidence.png,1,guessing.png,2,respond_yes.png,3,respond_no.png,4,Word 22 of 40,1,Image 2 of 5,1,store,8
1,testBlock,centre_mouse,48,70,reveal,im0000050.jpg,N_1.png,1,N_2.png,2,N_3.png,3,N_4.png,4,Y_1.png,1,Y_2.png,2,Y_3.png,3,Y_4.png,4,confidence.png,1,guessing.png,2,respond_yes.png,3,respond_no.png,4,Word 22 of 40,1,Image 2 of 5,1,reveal.png,5
1,testBlock,present_trial,49,21,yes_4,im0000050.jpg,N_1.png,1,N_2.png,2,N_3.png,3,N_4.png,4,Y_1.png,1,Y_2.png,2,Y_3.png,3,Y_4.png,4,confidence.png,1,guessing.png,2,respond_yes.png,3,respond_no.png,4,Word 23 of 40,1,Image 2 of 5,1,saoorow,19
1,testBlock,centre_mouse,50,46,reveal,im0000050.jpg,N_1.png,1,N_2.png,2,N_3.png,3,N_4.png,4,Y_1.png,1,Y_2.png,2,Y_3.png,3,Y_4.png,4,confidence.png,1,guessing.png,2,respond_yes.png,3,respond_no.png,4,Word 23 of 40,1,Image 2 of 5,1,reveal.png,5
1,testBlock,absent_trial,51,49,no_2,im0000050.jpg,N_1.png,1,N_2.png,2,N_3.png,3,N_4.png,4,Y_1.png,1,Y_2.png,2,Y_3.png,3,Y_4.png,4,confidence.png,1,guessing.png,2,respond_yes.png,3,respond_no.png,4,Word 24 of 40,1,Image 2 of 5,1,metal,3
1,testBlock,centre_mouse,52,28,reveal,im0000050.jpg,N_1.png,1,N_2.png,2,N_3.png,3,N_4.png,4,Y_1.png,1,Y_2.png,2,Y_3.png,3,Y_4.png,4,confidence.png,1,guessing.png,2,respond_yes.png,3,respond_no.png,4,Word 24 of 40,1,Image 2 of 5,1,reveal.png,5
1,testBlock,present_trial,53,55,no_1,im0000050.jpg,N_1.png,1,N_2.png,2,N_3.png,3,N_4.png,4,Y_1.png,1,Y_2.png,2,Y_3.png,3,Y_4.png,4,confidence.png,1,guessing.png,2,respond_yes.png,3,respond_no.png,4,Word 25 of 40,1,Image 2 of 5,1,people,4
1,testBlock,centre_mouse,54,60,reveal,im0000050.jpg,N_1.png,1,N_2.png,2,N_3.png,3,N_4.png,4,Y_1.png,1,Y_2.png,2,Y_3.png,3,Y_4.png,4,confidence.png,1,guessing.png,2,respond_yes.png,3,respond_no.png,4,Word 25 of 40,1,Image 2 of 5,1,reveal.png,5
1,testBlock,absent_trial,55,49,no_2,im0000050.jpg,N_1.png,1,N_2.png,2,N_3.png,3,N_4.png,4,Y_1.png,1,Y_2.png,2,Y_3.png,3,Y_4.png,4,confidence.png,1,guessing.png,2,respond_yes.png,3,respond_no.png,4,Word 26 of 40,1,Image 2 of 5,1,walk,1
1,testBlock,centre_mouse,56,54,reveal,im0000050.jpg,N_1.png,1,N_2.png,2,N_3.png,3,N_4.png,4,Y_1.png,1,Y_2.png,2,Y_3.png,3,Y_4.png,4,confidence.png,1,guessing.png,2,respond_yes.png,3,respond_no.png,4,Word 26 of 40,1,Image 2 of 5,1,reveal.png,5
1,testBlock,catch_absent_trial,57,31,no_3,im0000050.jpg,N_1.png,1,N_2.png,2,N_3.png,3,N_4.png,4,Y_1.png,1,Y_2.png,2,Y_3.png,3,Y_4.png,4,confidence.png,1,guessing.png,2,respond_yes.png,3,respond_no.png,4,Word 26 of 40,1,Image 2 of 5,1,PRESS: No 3,3
1,testBlock,centre_mouse,58,43,reveal,im0000050.jpg,N_1.png,1,N_2.png,2,N_3.png,3,N_4.png,4,Y_1.png,1,Y_2.png,2,Y_3.png,3,Y_4.png,4,confidence.png,1,guessing.png,2,respond_yes.png,3,respond_no.png,4,Word 26 of 40,1,Image 2 of 5,1,reveal.png,5
1,testBlock,present_trial,59,43,no_3,im0000050.jpg,N_1.png,1,N_2.png,2,N_3.png,3,N_4.png,4,Y_1.png,1,Y_2.png,2,Y_3.png,3,Y_4.png,4,confidence.png,1,guessing.png,2,respond_yes.png,3,respond_no.png,4,Word 27 of 40,1,Image 2 of 5,1,purchase,9
1,testBlock,centre_mouse,60,68,reveal,im0000050.jpg,N_1.png,1,N_2.png,2,N_3.png,3,N_4.png,4,Y_1.png,1,Y_2.png,2,Y_3.png,3,Y_4.png,4,confidence.png,1,guessing.png,2,respond_yes.png,3,respond_no.png,4,Word 27 of 40,1,Image 2 of 5,1,reveal.png,5
1,testBlock,present_trial,61,47,yes_3,im0000050.jpg,N_1.png,1,N_2.png,2,N_3.png,3,N_4.png,4,Y_1.png,1,Y_2.png,2,Y_3.png,3,Y_4.png,4,confidence.png,1,guessing.png,2,respond_yes.png,3,respond_no.png,4,Word 28 of 40,1,Image 2 of 5,1,horse,16
1,testBlock,centre_mouse,62,53,reveal,im0000050.jpg,N_1.png,1,N_2.png,2,N_3.png,3,N_4.png,4,Y_1.png,1,Y_2.png,2,Y_3.png,3,Y_4.png,4,confidence.png,1,guessing.png,2,respond_yes.png,3,respond_no.png,4,Word 28 of 40,1,Image 2 of 5,1,reveal.png,5
1,testBlock,present_trial,63,28,yes_3,im0000050.jpg,N_1.png,1,N_2.png,2,N_3.png,3,N_4.png,4,Y_1.png,1,Y_2.png,2,Y_3.png,3,Y_4.png,4,confidence.png,1,guessing.png,2,respond_yes.png,3,respond_no.png,4,Word 29 of 40,1,Image 2 of 5,1,crowd,13
1,testBlock,centre_mouse,64,55,reveal,im0000050.jpg,N_1.png,1,N_2.png,2,N_3.png,3,N_4.png,4,Y_1.png,1,Y_2.png,2,Y_3.png,3,Y_4.png,4,confidence.png,1,guessing.png,2,respond_yes.png,3,respond_no.png,4,Word 29 of 40,1,Image 2 of 5,1,reveal.png,5
1,testBlock,absent_trial,65,43,no_1,im0000050.jpg,N_1.png,1,N_2.png,2,N_3.png,3,N_4.png,4,Y_1.png,1,Y_2.png,2,Y_3.png,3,Y_4.png,4,confidence.png,1,guessing.png,2,respond_yes.png,3,respond_no.png,4,Word 30 of 40,1,Image 2 of 5,1,gate,11
1,testBlock,centre_mouse,66,58,reveal,im0000050.jpg,N_1.png,1,N_2.png,2,N_3.png,3,N_4.png,4,Y_1.png,1,Y_2.png,2,Y_3.png,3,Y_4.png,4,confidence.png,1,guessing.png,2,respond_yes.png,3,respond_no.png,4,Word 30 of 40,1,Image 2 of 5,1,reveal.png,5
1,testBlock,present_trial,67,29,yes_3,im0000050.jpg,N_1.png,1,N_2.png,2,N_3.png,3,N_4.png,4,Y_1.png,1,Y_2.png,2,Y_3.png,3,Y_4.png,4,confidence.png,1,guessing.png,2,respond_yes.png,3,respond_no.png,4,Word 31 of 40,1,Image 2 of 5,1,person,14
1,testBlock,centre_mouse,68,48,reveal,im0000050.jpg,N_1.png,1,N_2.png,2,N_3.png,3,N_4.png,4,Y_1.png,1,Y_2.png,2,Y_3.png,3,Y_4.png,4,confidence.png,1,guessing.png,2,respond_yes.png,3,respond_no.png,4,Word 31 of 40,1,Image 2 of 5,1,reveal.png,5
1,testBlock,absent_trial,69,30,no_2,im0000050.jpg,N_1.png,1,N_2.png,2,N_3.png,3,N_4.png,4,Y_1.png,1,Y_2.png,2,Y_3.png,3,Y_4.png,4,confidence.png,1,guessing.png,2,respond_yes.png,3,respond_no.png,4,Word 32 of 40,1,Image 2 of 5,1,sunny-afternoon,19
1,testBlock,centre_mouse,70,42,reveal,im0000050.jpg,N_1.png,1,N_2.png,2,N_3.png,3,N_4.png,4,Y_1.png,1,Y_2.png,2,Y_3.png,3,Y_4.png,4,confidence.png,1,guessing.png,2,respond_yes.png,3,respond_no.png,4,Word 32 of 40,1,Image 2 of 5,1,reveal.png,5
1,testBlock,present_trial,71,28,yes_3,im0000050.jpg,N_1.png,1,N_2.png,2,N_3.png,3,N_4.png,4,Y_1.png,1,Y_2.png,2,Y_3.png,3,Y_4.png,4,confidence.png,1,guessing.png,2,respond_yes.png,3,respond_no.png,4,Word 33 of 40,1,Image 2 of 5,1,woman,11
1,testBlock,centre_mouse,72,56,reveal,im0000050.jpg,N_1.png,1,N_2.png,2,N_3.png,3,N_4.png,4,Y_1.png,1,Y_2.png,2,Y_3.png,3,Y_4.png,4,confidence.png,1,guessing.png,2,respond_yes.png,3,respond_no.png,4,Word 33 of 40,1,Image 2 of 5,1,reveal.png,5
1,testBlock,present_trial,73,52,yes_3,im0000050.jpg,N_1.png,1,N_2.png,2,N_3.png,3,N_4.png,4,Y_1.png,1,Y_2.png,2,Y_3.png,3,Y_4.png,4,confidence.png,1,guessing.png,2,respond_yes.png,3,respond_no.png,4,Word 34 of 40,1,Image 2 of 5,1,army-people,20
1,testBlock,centre_mouse,74,52,reveal,im0000050.jpg,N_1.png,1,N_2.png,2,N_3.png,3,N_4.png,4,Y_1.png,1,Y_2.png,2,Y_3.png,3,Y_4.png,4,confidence.png,1,guessing.png,2,respond_yes.png,3,respond_no.png,4,Word 34 of 40,1,Image 2 of 5,1,reveal.png,5
1,testBlock,absent_trial,75,47,no_3,im0000050.jpg,N_1.png,1,N_2.png,2,N_3.png,3,N_4.png,4,Y_1.png,1,Y_2.png,2,Y_3.png,3,Y_4.png,4,confidence.png,1,guessing.png,2,respond_yes.png,3,respond_no.png,4,Word 35 of 40,1,Image 2 of 5,1,smile,12
1,testBlock,centre_mouse,76,23,reveal,im0000050.jpg,N_1.png,1,N_2.png,2,N_3.png,3,N_4.png,4,Y_1.png,1,Y_2.png,2,Y_3.png,3,Y_4.png,4,confidence.png,1,guessing.png,2,respond_yes.png,3,respond_no.png,4,Word 35 of 40,1,Image 2 of 5,1,reveal.png,5
1,testBlock,present_trial,77,44,no_2,im0000050.jpg,N_1.png,1,N_2.png,2,N_3.png,3,N_4.png,4,Y_1.png,1,Y_2.png,2,Y_3.png,3,Y_4.png,4,confidence.png,1,guessing.png,2,respond_yes.png,3,respond_no.png,4,Word 36 of 40,1,Image 2 of 5,1,orange,7
1,testBlock,centre_mouse,78,48,reveal,im0000050.jpg,N_1.png,1,N_2.png,2,N_3.png,3,N_4.png,4,Y_1.png,1,Y_2.png,2,Y_3.png,3,Y_4.png,4,confidence.png,1,guessing.png,2,respond_yes.png,3,respond_no.png,4,Word 36 of 40,1,Image 2 of 5,1,reveal.png,5
1,testBlock,absent_trial,79,47,yes_3,im0000050.jpg,N_1.png,1,N_2.png,2,N_3.png,3,N_4.png,4,Y_1.png,1,Y_2.png,2,Y_3.png,3,Y_4.png,4,confidence.png,1,guessing.png,2,respond_yes.png,3,respond_no.png,4,Word 37 of 40,1,Image 2 of 5,1,cloud,21
1,testBlock,centre_mouse,80,34,reveal,im0000050.jpg,N_1.png,1,N_2.png,2,N_3.png,3,N_4.png,4,Y_1.png,1,Y_2.png,2,Y_3.png,3,Y_4.png,4,confidence.png,1,guessing.png,2,respond_yes.png,3,respond_no.png,4,Word 37 of 40,1,Image 2 of 5,1,reveal.png,5
1,testBlock,absent_trial,81,40,no_4,im0000050.jpg,N_1.png,1,N_2.png,2,N_3.png,3,N_4.png,4,Y_1.png,1,Y_2.png,2,Y_3.png,3,Y_4.png,4,confidence.png,1,guessing.png,2,respond_yes.png,3,respond_no.png,4,Word 38 of 40,1,Image 2 of 5,1,cooling-glass,24
1,testBlock,centre_mouse,82,24,reveal,im0000050.jpg,N_1.png,1,N_2.png,2,N_3.png,3,N_4.png,4,Y_1.png,1,Y_2.png,2,Y_3.png,3,Y_4.png,4,confidence.png,1,guessing.png,2,respond_yes.png,3,respond_no.png,4,Word 38 of 40,1,Image 2 of 5,1,reveal.png,5
1,testBlock,absent_trial,83,40,yes_3,im0000050.jpg,N_1.png,1,N_2.png,2,N_3.png,3,N_4.png,4,Y_1.png,1,Y_2.png,2,Y_3.png,3,Y_4.png,4,confidence.png,1,guessing.png,2,respond_yes.png,3,respond_no.png,4,Word 39 of 40,1,Image 2 of 5,1,man,6
1,testBlock,centre_mouse,84,37,reveal,im0000050.jpg,N_1.png,1,N_2.png,2,N_3.png,3,N_4.png,4,Y_1.png,1,Y_2.png,2,Y_3.png,3,Y_4.png,4,confidence.png,1,guessing.png,2,respond_yes.png,3,respond_no.png,4,Word 39 of 40,1,Image 2 of 5,1,reveal.png,5
1,testBlock,absent_trial,85,23,no_4,im0000050.jpg,N_1.png,1,N_2.png,2,N_3.png,3,N_4.png,4,Y_1.png,1,Y_2.png,2,Y_3.png,3,Y_4.png,4,confidence.png,1,guessing.png,2,respond_yes.png,3,respond_no.png,4,Word 40 of 40,1,Image 2 of 5,1,anxious,5
1,testBlock,centre_mouse,86,41,reveal,im0000050.jpg,N_1.png,1,N_2.png,2,N_3.png,3,N_4.png,4,Y_1.png,1,Y_2.png,2,Y_3.png,3,Y_4.png,4,confidence.png,1,guessing.png,2,respond_yes.png,3,respond_no.png,4,Word 40 of 40,1,Image 2 of 5,1,reveal.png,5
1,testBlock,test,1,1,0,im0000050.jpg,+,1,im0000041.jpg,1,mask5.jpg,5,mask3.jpg,3,mask1.jpg,1,mask2.jpg,2,mask4.jpg,4,0,0,0,0,0,0,0,0,0,0,0,0,0,0,0,0
1,testBlock,centre_mouse,2,54,reveal,im0000050.jpg,N_1.png,1,N_2.png,2,N_3.png,3,N_4.png,4,Y_1.png,1,Y_2.png,2,Y_3.png,3,Y_4.png,4,confidence.png,1,guessing.png,2,respond_yes.png,3,respond_no.png,4,Word 0 of 40,1,Image 3 of 5,1,reveal.png,5
1,testBlock,absent_trial,3,63,no_4,im0000041.jpg,N_1.png,1,N_2.png,2,N_3.png,3,N_4.png,4,Y_1.png,1,Y_2.png,2,Y_3.png,3,Y_4.png,4,confidence.png,1,guessing.png,2,respond_yes.png,3,respond_no.png,4,Word 1 of 40,1,Image 3 of 5,1,large,8
1,testBlock,centre_mouse,4,58,reveal,im0000041.jpg,N_1.png,1,N_2.png,2,N_3.png,3,N_4.png,4,Y_1.png,1,Y_2.png,2,Y_3.png,3,Y_4.png,4,confidence.png,1,guessing.png,2,respond_yes.png,3,respond_no.png,4,Word 1 of 40,1,Image 3 of 5,1,reveal.png,5
1,testBlock,absent_trial,5,23,yes_3,im0000041.jpg,N_1.png,1,N_2.png,2,N_3.png,3,N_4.png,4,Y_1.png,1,Y_2.png,2,Y_3.png,3,Y_4.png,4,confidence.png,1,guessing.png,2,respond_yes.png,3,respond_no.png,4,Word 2 of 40,1,Image 3 of 5,1,fume,33
1,testBlock,centre_mouse,6,44,reveal,im0000041.jpg,N_1.png,1,N_2.png,2,N_3.png,3,N_4.png,4,Y_1.png,1,Y_2.png,2,Y_3.png,3,Y_4.png,4,confidence.png,1,guessing.png,2,respond_yes.png,3,respond_no.png,4,Word 2 of 40,1,Image 3 of 5,1,reveal.png,5
1,testBlock,absent_trial,7,33,no_1,im0000041.jpg,N_1.png,1,N_2.png,2,N_3.png,3,N_4.png,4,Y_1.png,1,Y_2.png,2,Y_3.png,3,Y_4.png,4,confidence.png,1,guessing.png,2,respond_yes.png,3,respond_no.png,4,Word 3 of 40,1,Image 3 of 5,1,sauce,38
1,testBlock,centre_mouse,8,53,reveal,im0000041.jpg,N_1.png,1,N_2.png,2,N_3.png,3,N_4.png,4,Y_1.png,1,Y_2.png,2,Y_3.png,3,Y_4.png,4,confidence.png,1,guessing.png,2,respond_yes.png,3,respond_no.png,4,Word 3 of 40,1,Image 3 of 5,1,reveal.png,5
1,testBlock,absent_trial,9,41,no_4,im0000041.jpg,N_1.png,1,N_2.png,2,N_3.png,3,N_4.png,4,Y_1.png,1,Y_2.png,2,Y_3.png,3,Y_4.png,4,confidence.png,1,guessing.png,2,respond_yes.png,3,respond_no.png,4,Word 4 of 40,1,Image 3 of 5,1,cloudy,29
1,testBlock,centre_mouse,10,42,reveal,im0000041.jpg,N_1.png,1,N_2.png,2,N_3.png,3,N_4.png,4,Y_1.png,1,Y_2.png,2,Y_3.png,3,Y_4.png,4,confidence.png,1,guessing.png,2,respond_yes.png,3,respond_no.png,4,Word 4 of 40,1,Image 3 of 5,1,reveal.png,5
1,testBlock,present_trial,11,26,yes_4,im0000041.jpg,N_1.png,1,N_2.png,2,N_3.png,3,N_4.png,4,Y_1.png,1,Y_2.png,2,Y_3.png,3,Y_4.png,4,confidence.png,1,guessing.png,2,respond_yes.png,3,respond_no.png,4,Word 5 of 40,1,Image 3 of 5,1,relax,20
1,testBlock,centre_mouse,12,47,reveal,im0000041.jpg,N_1.png,1,N_2.png,2,N_3.png,3,N_4.png,4,Y_1.png,1,Y_2.png,2,Y_3.png,3,Y_4.png,4,confidence.png,1,guessing.png,2,respond_yes.png,3,respond_no.png,4,Word 5 of 40,1,Image 3 of 5,1,reveal.png,5
1,testBlock,present_trial,13,41,yes_4,im0000041.jpg,N_1.png,1,N_2.png,2,N_3.png,3,N_4.png,4,Y_1.png,1,Y_2.png,2,Y_3.png,3,Y_4.png,4,confidence.png,1,guessing.png,2,respond_yes.png,3,respond_no.png,4,Word 6 of 40,1,Image 3 of 5,1,water,9
1,testBlock,centre_mouse,14,52,reveal,im0000041.jpg,N_1.png,1,N_2.png,2,N_3.png,3,N_4.png,4,Y_1.png,1,Y_2.png,2,Y_3.png,3,Y_4.png,4,confidence.png,1,guessing.png,2,respond_yes.png,3,respond_no.png,4,Word 6 of 40,1,Image 3 of 5,1,reveal.png,5
1,testBlock,present_trial,15,57,no_1,im0000041.jpg,N_1.png,1,N_2.png,2,N_3.png,3,N_4.png,4,Y_1.png,1,Y_2.png,2,Y_3.png,3,Y_4.png,4,confidence.png,1,guessing.png,2,respond_yes.png,3,respond_no.png,4,Word 7 of 40,1,Image 3 of 5,1,horse,5
1,testBlock,centre_mouse,16,55,reveal,im0000041.jpg,N_1.png,1,N_2.png,2,N_3.png,3,N_4.png,4,Y_1.png,1,Y_2.png,2,Y_3.png,3,Y_4.png,4,confidence.png,1,guessing.png,2,respond_yes.png,3,respond_no.png,4,Word 7 of 40,1,Image 3 of 5,1,reveal.png,5
1,testBlock,absent_trial,17,47,no_4,im0000041.jpg,N_1.png,1,N_2.png,2,N_3.png,3,N_4.png,4,Y_1.png,1,Y_2.png,2,Y_3.png,3,Y_4.png,4,confidence.png,1,guessing.png,2,respond_yes.png,3,respond_no.png,4,Word 8 of 40,1,Image 3 of 5,1,bird,39
1,testBlock,centre_mouse,18,57,reveal,im0000041.jpg,N_1.png,1,N_2.png,2,N_3.png,3,N_4.png,4,Y_1.png,1,Y_2.png,2,Y_3.png,3,Y_4.png,4,confidence.png,1,guessing.png,2,respond_yes.png,3,respond_no.png,4,Word 8 of 40,1,Image 3 of 5,1,reveal.png,5
1,testBlock,present_trial,19,49,no_3,im0000041.jpg,N_1.png,1,N_2.png,2,N_3.png,3,N_4.png,4,Y_1.png,1,Y_2.png,2,Y_3.png,3,Y_4.png,4,confidence.png,1,guessing.png,2,respond_yes.png,3,respond_no.png,4,Word 9 of 40,1,Image 3 of 5,1,sunny,7
1,testBlock,centre_mouse,20,36,reveal,im0000041.jpg,N_1.png,1,N_2.png,2,N_3.png,3,N_4.png,4,Y_1.png,1,Y_2.png,2,Y_3.png,3,Y_4.png,4,confidence.png,1,guessing.png,2,respond_yes.png,3,respond_no.png,4,Word 9 of 40,1,Image 3 of 5,1,reveal.png,5
1,testBlock,absent_trial,21,42,no_4,im0000041.jpg,N_1.png,1,N_2.png,2,N_3.png,3,N_4.png,4,Y_1.png,1,Y_2.png,2,Y_3.png,3,Y_4.png,4,confidence.png,1,guessing.png,2,respond_yes.png,3,respond_no.png,4,Word 10 of 40,1,Image 3 of 5,1,woman,31
1,testBlock,centre_mouse,22,66,reveal,im0000041.jpg,N_1.png,1,N_2.png,2,N_3.png,3,N_4.png,4,Y_1.png,1,Y_2.png,2,Y_3.png,3,Y_4.png,4,confidence.png,1,guessing.png,2,respond_yes.png,3,respond_no.png,4,Word 10 of 40,1,Image 3 of 5,1,reveal.png,5
1,testBlock,present_trial,23,51,no_2,im0000041.jpg,N_1.png,1,N_2.png,2,N_3.png,3,N_4.png,4,Y_1.png,1,Y_2.png,2,Y_3.png,3,Y_4.png,4,confidence.png,1,guessing.png,2,respond_yes.png,3,respond_no.png,4,Word 11 of 40,1,Image 3 of 5,1,fence,6
1,testBlock,centre_mouse,24,46,reveal,im0000041.jpg,N_1.png,1,N_2.png,2,N_3.png,3,N_4.png,4,Y_1.png,1,Y_2.png,2,Y_3.png,3,Y_4.png,4,confidence.png,1,guessing.png,2,respond_yes.png,3,respond_no.png,4,Word 11 of 40,1,Image 3 of 5,1,reveal.png,5
1,testBlock,present_trial,25,24,no_1,im0000041.jpg,N_1.png,1,N_2.png,2,N_3.png,3,N_4.png,4,Y_1.png,1,Y_2.png,2,Y_3.png,3,Y_4.png,4,confidence.png,1,guessing.png,2,respond_yes.png,3,respond_no.png,4,Word 12 of 40,1,Image 3 of 5,1,moose,18
1,testBlock,centre_mouse,26,46,reveal,im0000041.jpg,N_1.png,1,N_2.png,2,N_3.png,3,N_4.png,4,Y_1.png,1,Y_2.png,2,Y_3.png,3,Y_4.png,4,confidence.png,1,guessing.png,2,respond_yes.png,3,respond_no.png,4,Word 12 of 40,1,Image 3 of 5,1,reveal.png,5
1,testBlock,present_trial,27,24,no_3,im0000041.jpg,N_1.png,1,N_2.png,2,N_3.png,3,N_4.png,4,Y_1.png,1,Y_2.png,2,Y_3.png,3,Y_4.png,4,confidence.png,1,guessing.png,2,respond_yes.png,3,respond_no.png,4,Word 13 of 40,1,Image 3 of 5,1,dirt,10
1,testBlock,centre_mouse,28,60,reveal,im0000041.jpg,N_1.png,1,N_2.png,2,N_3.png,3,N_4.png,4,Y_1.png,1,Y_2.png,2,Y_3.png,3,Y_4.png,4,confidence.png,1,guessing.png,2,respond_yes.png,3,respond_no.png,4,Word 13 of 40,1,Image 3 of 5,1,reveal.png,5
1,testBlock,present_trial,29,40,yes_4,im0000041.jpg,N_1.png,1,N_2.png,2,N_3.png,3,N_4.png,4,Y_1.png,1,Y_2.png,2,Y_3.png,3,Y_4.png,4,confidence.png,1,guessing.png,2,respond_yes.png,3,respond_no.png,4,Word 14 of 40,1,Image 3 of 5,1,outdoor,12
1,testBlock,centre_mouse,30,66,reveal,im0000041.jpg,N_1.png,1,N_2.png,2,N_3.png,3,N_4.png,4,Y_1.png,1,Y_2.png,2,Y_3.png,3,Y_4.png,4,confidence.png,1,guessing.png,2,respond_yes.png,3,respond_no.png,4,Word 14 of 40,1,Image 3 of 5,1,reveal.png,5
1,testBlock,absent_trial,31,52,no_4,im0000041.jpg,N_1.png,1,N_2.png,2,N_3.png,3,N_4.png,4,Y_1.png,1,Y_2.png,2,Y_3.png,3,Y_4.png,4,confidence.png,1,guessing.png,2,respond_yes.png,3,respond_no.png,4,Word 15 of 40,1,Image 3 of 5,1,swim,23
1,testBlock,centre_mouse,32,35,reveal,im0000041.jpg,N_1.png,1,N_2.png,2,N_3.png,3,N_4.png,4,Y_1.png,1,Y_2.png,2,Y_3.png,3,Y_4.png,4,confidence.png,1,guessing.png,2,respond_yes.png,3,respond_no.png,4,Word 15 of 40,1,Image 3 of 5,1,reveal.png,5
1,testBlock,absent_trial,33,39,no_1,im0000041.jpg,N_1.png,1,N_2.png,2,N_3.png,3,N_4.png,4,Y_1.png,1,Y_2.png,2,Y_3.png,3,Y_4.png,4,confidence.png,1,guessing.png,2,respond_yes.png,3,respond_no.png,4,Word 16 of 40,1,Image 3 of 5,1,child,7
1,testBlock,centre_mouse,34,42,reveal,im0000041.jpg,N_1.png,1,N_2.png,2,N_3.png,3,N_4.png,4,Y_1.png,1,Y_2.png,2,Y_3.png,3,Y_4.png,4,confidence.png,1,guessing.png,2,respond_yes.png,3,respond_no.png,4,Word 16 of 40,1,Image 3 of 5,1,reveal.png,5
1,testBlock,absent_trial,35,33,no_4,im0000041.jpg,N_1.png,1,N_2.png,2,N_3.png,3,N_4.png,4,Y_1.png,1,Y_2.png,2,Y_3.png,3,Y_4.png,4,confidence.png,1,guessing.png,2,respond_yes.png,3,respond_no.png,4,Word 17 of 40,1,Image 3 of 5,1,watercraft,10
1,testBlock,centre_mouse,36,30,reveal,im0000041.jpg,N_1.png,1,N_2.png,2,N_3.png,3,N_4.png,4,Y_1.png,1,Y_2.png,2,Y_3.png,3,Y_4.png,4,confidence.png,1,guessing.png,2,respond_yes.png,3,respond_no.png,4,Word 17 of 40,1,Image 3 of 5,1,reveal.png,5
1,testBlock,present_trial,37,48,yes_4,im0000041.jpg,N_1.png,1,N_2.png,2,N_3.png,3,N_4.png,4,Y_1.png,1,Y_2.png,2,Y_3.png,3,Y_4.png,4,confidence.png,1,guessing.png,2,respond_yes.png,3,respond_no.png,4,Word 18 of 40,1,Image 3 of 5,1,tree,16
1,testBlock,centre_mouse,38,43,reveal,im0000041.jpg,N_1.png,1,N_2.png,2,N_3.png,3,N_4.png,4,Y_1.png,1,Y_2.png,2,Y_3.png,3,Y_4.png,4,confidence.png,1,guessing.png,2,respond_yes.png,3,respond_no.png,4,Word 18 of 40,1,Image 3 of 5,1,reveal.png,5
1,testBlock,catch_present_trial,39,31,yes_4,im0000041.jpg,N_1.png,1,N_2.png,2,N_3.png,3,N_4.png,4,Y_1.png,1,Y_2.png,2,Y_3.png,3,Y_4.png,4,confidence.png,1,guessing.png,2,respond_yes.png,3,respond_no.png,4,Word 18 of 40,1,Image 3 of 5,1,PRESS: Yes 4,4
1,testBlock,centre_mouse,40,53,reveal,im0000041.jpg,N_1.png,1,N_2.png,2,N_3.png,3,N_4.png,4,Y_1.png,1,Y_2.png,2,Y_3.png,3,Y_4.png,4,confidence.png,1,guessing.png,2,respond_yes.png,3,respond_no.png,4,Word 18 of 40,1,Image 3 of 5,1,reveal.png,5
1,testBlock,absent_trial,41,29,no_3,im0000041.jpg,N_1.png,1,N_2.png,2,N_3.png,3,N_4.png,4,Y_1.png,1,Y_2.png,2,Y_3.png,3,Y_4.png,4,confidence.png,1,guessing.png,2,respond_yes.png,3,respond_no.png,4,Word 19 of 40,1,Image 3 of 5,1,thrill,40
1,testBlock,centre_mouse,42,51,reveal,im0000041.jpg,N_1.png,1,N_2.png,2,N_3.png,3,N_4.png,4,Y_1.png,1,Y_2.png,2,Y_3.png,3,Y_4.png,4,confidence.png,1,guessing.png,2,respond_yes.png,3,respond_no.png,4,Word 19 of 40,1,Image 3 of 5,1,reveal.png,5
1,testBlock,absent_trial,43,38,no_3,im0000041.jpg,N_1.png,1,N_2.png,2,N_3.png,3,N_4.png,4,Y_1.png,1,Y_2.png,2,Y_3.png,3,Y_4.png,4,confidence.png,1,guessing.png,2,respond_yes.png,3,respond_no.png,4,Word 20 of 40,1,Image 3 of 5,1,smoke,18
1,testBlock,centre_mouse,44,54,reveal,im0000041.jpg,N_1.png,1,N_2.png,2,N_3.png,3,N_4.png,4,Y_1.png,1,Y_2.png,2,Y_3.png,3,Y_4.png,4,confidence.png,1,guessing.png,2,respond_yes.png,3,respond_no.png,4,Word 20 of 40,1,Image 3 of 5,1,reveal.png,5
1,testBlock,present_trial,45,60,yes_4,im0000041.jpg,N_1.png,1,N_2.png,2,N_3.png,3,N_4.png,4,Y_1.png,1,Y_2.png,2,Y_3.png,3,Y_4.png,4,confidence.png,1,guessing.png,2,respond_yes.png,3,respond_no.png,4,Word 21 of 40,1,Image 3 of 5,1,paddock,15
1,testBlock,centre_mouse,46,35,reveal,im0000041.jpg,N_1.png,1,N_2.png,2,N_3.png,3,N_4.png,4,Y_1.png,1,Y_2.png,2,Y_3.png,3,Y_4.png,4,confidence.png,1,guessing.png,2,respond_yes.png,3,respond_no.png,4,Word 21 of 40,1,Image 3 of 5,1,reveal.png,5
1,testBlock,present_trial,47,30,yes_3,im0000041.jpg,N_1.png,1,N_2.png,2,N_3.png,3,N_4.png,4,Y_1.png,1,Y_2.png,2,Y_3.png,3,Y_4.png,4,confidence.png,1,guessing.png,2,respond_yes.png,3,respond_no.png,4,Word 22 of 40,1,Image 3 of 5,1,peaceful,19
1,testBlock,centre_mouse,48,32,reveal,im0000041.jpg,N_1.png,1,N_2.png,2,N_3.png,3,N_4.png,4,Y_1.png,1,Y_2.png,2,Y_3.png,3,Y_4.png,4,confidence.png,1,guessing.png,2,respond_yes.png,3,respond_no.png,4,Word 22 of 40,1,Image 3 of 5,1,reveal.png,5
1,testBlock,present_trial,49,20,yes_4,im0000041.jpg,N_1.png,1,N_2.png,2,N_3.png,3,N_4.png,4,Y_1.png,1,Y_2.png,2,Y_3.png,3,Y_4.png,4,confidence.png,1,guessing.png,2,respond_yes.png,3,respond_no.png,4,Word 23 of 40,1,Image 3 of 5,1,farm,4
1,testBlock,centre_mouse,50,47,reveal,im0000041.jpg,N_1.png,1,N_2.png,2,N_3.png,3,N_4.png,4,Y_1.png,1,Y_2.png,2,Y_3.png,3,Y_4.png,4,confidence.png,1,guessing.png,2,respond_yes.png,3,respond_no.png,4,Word 23 of 40,1,Image 3 of 5,1,reveal.png,5
1,testBlock,present_trial,51,39,no_4,im0000041.jpg,N_1.png,1,N_2.png,2,N_3.png,3,N_4.png,4,Y_1.png,1,Y_2.png,2,Y_3.png,3,Y_4.png,4,confidence.png,1,guessing.png,2,respond_yes.png,3,respond_no.png,4,Word 24 of 40,1,Image 3 of 5,1,outside,8
1,testBlock,centre_mouse,52,37,reveal,im0000041.jpg,N_1.png,1,N_2.png,2,N_3.png,3,N_4.png,4,Y_1.png,1,Y_2.png,2,Y_3.png,3,Y_4.png,4,confidence.png,1,guessing.png,2,respond_yes.png,3,respond_no.png,4,Word 24 of 40,1,Image 3 of 5,1,reveal.png,5
1,testBlock,absent_trial,53,56,yes_1,im0000041.jpg,N_1.png,1,N_2.png,2,N_3.png,3,N_4.png,4,Y_1.png,1,Y_2.png,2,Y_3.png,3,Y_4.png,4,confidence.png,1,guessing.png,2,respond_yes.png,3,respond_no.png,4,Word 25 of 40,1,Image 3 of 5,1,sparrow,14
1,testBlock,centre_mouse,54,57,reveal,im0000041.jpg,N_1.png,1,N_2.png,2,N_3.png,3,N_4.png,4,Y_1.png,1,Y_2.png,2,Y_3.png,3,Y_4.png,4,confidence.png,1,guessing.png,2,respond_yes.png,3,respond_no.png,4,Word 25 of 40,1,Image 3 of 5,1,reveal.png,5
1,testBlock,absent_trial,55,32,no_3,im0000041.jpg,N_1.png,1,N_2.png,2,N_3.png,3,N_4.png,4,Y_1.png,1,Y_2.png,2,Y_3.png,3,Y_4.png,4,confidence.png,1,guessing.png,2,respond_yes.png,3,respond_no.png,4,Word 26 of 40,1,Image 3 of 5,1,vapor,27
1,testBlock,centre_mouse,56,28,reveal,im0000041.jpg,N_1.png,1,N_2.png,2,N_3.png,3,N_4.png,4,Y_1.png,1,Y_2.png,2,Y_3.png,3,Y_4.png,4,confidence.png,1,guessing.png,2,respond_yes.png,3,respond_no.png,4,Word 26 of 40,1,Image 3 of 5,1,reveal.png,5
1,testBlock,catch_absent_trial,57,35,no_2,im0000041.jpg,N_1.png,1,N_2.png,2,N_3.png,3,N_4.png,4,Y_1.png,1,Y_2.png,2,Y_3.png,3,Y_4.png,4,confidence.png,1,guessing.png,2,respond_yes.png,3,respond_no.png,4,Word 26 of 40,1,Image 3 of 5,1,PRESS: No 2,2
1,testBlock,centre_mouse,58,34,reveal,im0000041.jpg,N_1.png,1,N_2.png,2,N_3.png,3,N_4.png,4,Y_1.png,1,Y_2.png,2,Y_3.png,3,Y_4.png,4,confidence.png,1,guessing.png,2,respond_yes.png,3,respond_no.png,4,Word 26 of 40,1,Image 3 of 5,1,reveal.png,5
1,testBlock,present_trial,59,42,yes_3,im0000041.jpg,N_1.png,1,N_2.png,2,N_3.png,3,N_4.png,4,Y_1.png,1,Y_2.png,2,Y_3.png,3,Y_4.png,4,confidence.png,1,guessing.png,2,respond_yes.png,3,respond_no.png,4,Word 27 of 40,1,Image 3 of 5,1,brown,14
1,testBlock,centre_mouse,60,61,reveal,im0000041.jpg,N_1.png,1,N_2.png,2,N_3.png,3,N_4.png,4,Y_1.png,1,Y_2.png,2,Y_3.png,3,Y_4.png,4,confidence.png,1,guessing.png,2,respond_yes.png,3,respond_no.png,4,Word 27 of 40,1,Image 3 of 5,1,reveal.png,5
1,testBlock,absent_trial,61,50,no_3,im0000041.jpg,N_1.png,1,N_2.png,2,N_3.png,3,N_4.png,4,Y_1.png,1,Y_2.png,2,Y_3.png,3,Y_4.png,4,confidence.png,1,guessing.png,2,respond_yes.png,3,respond_no.png,4,Word 28 of 40,1,Image 3 of 5,1,disturb,30
1,testBlock,centre_mouse,62,49,reveal,im0000041.jpg,N_1.png,1,N_2.png,2,N_3.png,3,N_4.png,4,Y_1.png,1,Y_2.png,2,Y_3.png,3,Y_4.png,4,confidence.png,1,guessing.png,2,respond_yes.png,3,respond_no.png,4,Word 28 of 40,1,Image 3 of 5,1,reveal.png,5
1,testBlock,present_trial,63,46,no_1,im0000041.jpg,N_1.png,1,N_2.png,2,N_3.png,3,N_4.png,4,Y_1.png,1,Y_2.png,2,Y_3.png,3,Y_4.png,4,confidence.png,1,guessing.png,2,respond_yes.png,3,respond_no.png,4,Word 29 of 40,1,Image 3 of 5,1,run,13
1,testBlock,centre_mouse,64,53,reveal,im0000041.jpg,N_1.png,1,N_2.png,2,N_3.png,3,N_4.png,4,Y_1.png,1,Y_2.png,2,Y_3.png,3,Y_4.png,4,confidence.png,1,guessing.png,2,respond_yes.png,3,respond_no.png,4,Word 29 of 40,1,Image 3 of 5,1,reveal.png,5
1,testBlock,present_trial,65,44,yes_3,im0000041.jpg,N_1.png,1,N_2.png,2,N_3.png,3,N_4.png,4,Y_1.png,1,Y_2.png,2,Y_3.png,3,Y_4.png,4,confidence.png,1,guessing.png,2,respond_yes.png,3,respond_no.png,4,Word 30 of 40,1,Image 3 of 5,1,pasture,3
1,testBlock,centre_mouse,66,58,reveal,im0000041.jpg,N_1.png,1,N_2.png,2,N_3.png,3,N_4.png,4,Y_1.png,1,Y_2.png,2,Y_3.png,3,Y_4.png,4,confidence.png,1,guessing.png,2,respond_yes.png,3,respond_no.png,4,Word 30 of 40,1,Image 3 of 5,1,reveal.png,5
1,testBlock,absent_trial,67,56,no_2,im0000041.jpg,N_1.png,1,N_2.png,2,N_3.png,3,N_4.png,4,Y_1.png,1,Y_2.png,2,Y_3.png,3,Y_4.png,4,confidence.png,1,guessing.png,2,respond_yes.png,3,respond_no.png,4,Word 31 of 40,1,Image 3 of 5,1,yellow,19
1,testBlock,centre_mouse,68,40,reveal,im0000041.jpg,N_1.png,1,N_2.png,2,N_3.png,3,N_4.png,4,Y_1.png,1,Y_2.png,2,Y_3.png,3,Y_4.png,4,confidence.png,1,guessing.png,2,respond_yes.png,3,respond_no.png,4,Word 31 of 40,1,Image 3 of 5,1,reveal.png,5
1,testBlock,absent_trial,69,42,no_3,im0000041.jpg,N_1.png,1,N_2.png,2,N_3.png,3,N_4.png,4,Y_1.png,1,Y_2.png,2,Y_3.png,3,Y_4.png,4,confidence.png,1,guessing.png,2,respond_yes.png,3,respond_no.png,4,Word 32 of 40,1,Image 3 of 5,1,play,25
1,testBlock,centre_mouse,70,43,reveal,im0000041.jpg,N_1.png,1,N_2.png,2,N_3.png,3,N_4.png,4,Y_1.png,1,Y_2.png,2,Y_3.png,3,Y_4.png,4,confidence.png,1,guessing.png,2,respond_yes.png,3,respond_no.png,4,Word 32 of 40,1,Image 3 of 5,1,reveal.png,5
1,testBlock,present_trial,71,49,yes_4,im0000041.jpg,N_1.png,1,N_2.png,2,N_3.png,3,N_4.png,4,Y_1.png,1,Y_2.png,2,Y_3.png,3,Y_4.png,4,confidence.png,1,guessing.png,2,respond_yes.png,3,respond_no.png,4,Word 33 of 40,1,Image 3 of 5,1,green,11
1,testBlock,centre_mouse,72,42,reveal,im0000041.jpg,N_1.png,1,N_2.png,2,N_3.png,3,N_4.png,4,Y_1.png,1,Y_2.png,2,Y_3.png,3,Y_4.png,4,confidence.png,1,guessing.png,2,respond_yes.png,3,respond_no.png,4,Word 33 of 40,1,Image 3 of 5,1,reveal.png,5
1,testBlock,absent_trial,73,39,no_2,im0000041.jpg,N_1.png,1,N_2.png,2,N_3.png,3,N_4.png,4,Y_1.png,1,Y_2.png,2,Y_3.png,3,Y_4.png,4,confidence.png,1,guessing.png,2,respond_yes.png,3,respond_no.png,4,Word 34 of 40,1,Image 3 of 5,1,bland,28
1,testBlock,centre_mouse,74,52,reveal,im0000041.jpg,N_1.png,1,N_2.png,2,N_3.png,3,N_4.png,4,Y_1.png,1,Y_2.png,2,Y_3.png,3,Y_4.png,4,confidence.png,1,guessing.png,2,respond_yes.png,3,respond_no.png,4,Word 34 of 40,1,Image 3 of 5,1,reveal.png,5
1,testBlock,absent_trial,75,60,no_4,im0000041.jpg,N_1.png,1,N_2.png,2,N_3.png,3,N_4.png,4,Y_1.png,1,Y_2.png,2,Y_3.png,3,Y_4.png,4,confidence.png,1,guessing.png,2,respond_yes.png,3,respond_no.png,4,Word 35 of 40,1,Image 3 of 5,1,carriage,26
1,testBlock,centre_mouse,76,53,reveal,im0000041.jpg,N_1.png,1,N_2.png,2,N_3.png,3,N_4.png,4,Y_1.png,1,Y_2.png,2,Y_3.png,3,Y_4.png,4,confidence.png,1,guessing.png,2,respond_yes.png,3,respond_no.png,4,Word 35 of 40,1,Image 3 of 5,1,reveal.png,5
1,testBlock,present_trial,77,49,no_4,im0000041.jpg,N_1.png,1,N_2.png,2,N_3.png,3,N_4.png,4,Y_1.png,1,Y_2.png,2,Y_3.png,3,Y_4.png,4,confidence.png,1,guessing.png,2,respond_yes.png,3,respond_no.png,4,Word 36 of 40,1,Image 3 of 5,1,grass,2
1,testBlock,centre_mouse,78,41,reveal,im0000041.jpg,N_1.png,1,N_2.png,2,N_3.png,3,N_4.png,4,Y_1.png,1,Y_2.png,2,Y_3.png,3,Y_4.png,4,confidence.png,1,guessing.png,2,respond_yes.png,3,respond_no.png,4,Word 36 of 40,1,Image 3 of 5,1,reveal.png,5
1,testBlock,absent_trial,79,50,no_4,im0000041.jpg,N_1.png,1,N_2.png,2,N_3.png,3,N_4.png,4,Y_1.png,1,Y_2.png,2,Y_3.png,3,Y_4.png,4,confidence.png,1,guessing.png,2,respond_yes.png,3,respond_no.png,4,Word 37 of 40,1,Image 3 of 5,1,grind,35
1,testBlock,centre_mouse,80,42,reveal,im0000041.jpg,N_1.png,1,N_2.png,2,N_3.png,3,N_4.png,4,Y_1.png,1,Y_2.png,2,Y_3.png,3,Y_4.png,4,confidence.png,1,guessing.png,2,respond_yes.png,3,respond_no.png,4,Word 37 of 40,1,Image 3 of 5,1,reveal.png,5
1,testBlock,present_trial,81,32,no_1,im0000041.jpg,N_1.png,1,N_2.png,2,N_3.png,3,N_4.png,4,Y_1.png,1,Y_2.png,2,Y_3.png,3,Y_4.png,4,confidence.png,1,guessing.png,2,respond_yes.png,3,respond_no.png,4,Word 38 of 40,1,Image 3 of 5,1,white-fence,17
1,testBlock,centre_mouse,82,44,reveal,im0000041.jpg,N_1.png,1,N_2.png,2,N_3.png,3,N_4.png,4,Y_1.png,1,Y_2.png,2,Y_3.png,3,Y_4.png,4,confidence.png,1,guessing.png,2,respond_yes.png,3,respond_no.png,4,Word 38 of 40,1,Image 3 of 5,1,reveal.png,5
1,testBlock,present_trial,83,44,no_4,im0000041.jpg,N_1.png,1,N_2.png,2,N_3.png,3,N_4.png,4,Y_1.png,1,Y_2.png,2,Y_3.png,3,Y_4.png,4,confidence.png,1,guessing.png,2,respond_yes.png,3,respond_no.png,4,Word 39 of 40,1,Image 3 of 5,1,cow,1
1,testBlock,centre_mouse,84,28,reveal,im0000041.jpg,N_1.png,1,N_2.png,2,N_3.png,3,N_4.png,4,Y_1.png,1,Y_2.png,2,Y_3.png,3,Y_4.png,4,confidence.png,1,guessing.png,2,respond_yes.png,3,respond_no.png,4,Word 39 of 40,1,Image 3 of 5,1,reveal.png,5
1,testBlock,absent_trial,85,54,no_4,im0000041.jpg,N_1.png,1,N_2.png,2,N_3.png,3,N_4.png,4,Y_1.png,1,Y_2.png,2,Y_3.png,3,Y_4.png,4,confidence.png,1,guessing.png,2,respond_yes.png,3,respond_no.png,4,Word 40 of 40,1,Image 3 of 5,1,explore,9
1,testBlock,centre_mouse,86,48,reveal,im0000041.jpg,N_1.png,1,N_2.png,2,N_3.png,3,N_4.png,4,Y_1.png,1,Y_2.png,2,Y_3.png,3,Y_4.png,4,confidence.png,1,guessing.png,2,respond_yes.png,3,respond_no.png,4,Word 40 of 40,1,Image 3 of 5,1,reveal.png,5
1,testBlock,test,1,1,0,im0000041.jpg,+,1,im0000069.jpg,5,mask2.jpg,2,mask1.jpg,1,mask3.jpg,3,mask4.jpg,4,mask2.jpg,2,0,0,0,0,0,0,0,0,0,0,0,0,0,0,0,0
1,testBlock,centre_mouse,2,38,reveal,im0000041.jpg,N_1.png,1,N_2.png,2,N_3.png,3,N_4.png,4,Y_1.png,1,Y_2.png,2,Y_3.png,3,Y_4.png,4,confidence.png,1,guessing.png,2,respond_yes.png,3,respond_no.png,4,Word 0 of 40,1,Image 4 of 5,1,reveal.png,5
1,testBlock,absent_trial,3,32,no_4,im0000069.jpg,N_1.png,1,N_2.png,2,N_3.png,3,N_4.png,4,Y_1.png,1,Y_2.png,2,Y_3.png,3,Y_4.png,4,confidence.png,1,guessing.png,2,respond_yes.png,3,respond_no.png,4,Word 1 of 40,1,Image 4 of 5,1,people,27
1,testBlock,centre_mouse,4,39,reveal,im0000069.jpg,N_1.png,1,N_2.png,2,N_3.png,3,N_4.png,4,Y_1.png,1,Y_2.png,2,Y_3.png,3,Y_4.png,4,confidence.png,1,guessing.png,2,respond_yes.png,3,respond_no.png,4,Word 1 of 40,1,Image 4 of 5,1,reveal.png,5
1,testBlock,present_trial,5,60,yes_4,im0000069.jpg,N_1.png,1,N_2.png,2,N_3.png,3,N_4.png,4,Y_1.png,1,Y_2.png,2,Y_3.png,3,Y_4.png,4,confidence.png,1,guessing.png,2,respond_yes.png,3,respond_no.png,4,Word 2 of 40,1,Image 4 of 5,1,chicago,10
1,testBlock,centre_mouse,6,60,reveal,im0000069.jpg,N_1.png,1,N_2.png,2,N_3.png,3,N_4.png,4,Y_1.png,1,Y_2.png,2,Y_3.png,3,Y_4.png,4,confidence.png,1,guessing.png,2,respond_yes.png,3,respond_no.png,4,Word 2 of 40,1,Image 4 of 5,1,reveal.png,5
1,testBlock,absent_trial,7,49,no_3,im0000069.jpg,N_1.png,1,N_2.png,2,N_3.png,3,N_4.png,4,Y_1.png,1,Y_2.png,2,Y_3.png,3,Y_4.png,4,confidence.png,1,guessing.png,2,respond_yes.png,3,respond_no.png,4,Word 3 of 40,1,Image 4 of 5,1,forest,20
1,testBlock,centre_mouse,8,10,reveal,im0000069.jpg,N_1.png,1,N_2.png,2,N_3.png,3,N_4.png,4,Y_1.png,1,Y_2.png,2,Y_3.png,3,Y_4.png,4,confidence.png,1,guessing.png,2,respond_yes.png,3,respond_no.png,4,Word 3 of 40,1,Image 4 of 5,1,reveal.png,5
1,testBlock,absent_trial,9,21,no_3,im0000069.jpg,N_1.png,1,N_2.png,2,N_3.png,3,N_4.png,4,Y_1.png,1,Y_2.png,2,Y_3.png,3,Y_4.png,4,confidence.png,1,guessing.png,2,respond_yes.png,3,respond_no.png,4,Word 4 of 40,1,Image 4 of 5,1,house,28
1,testBlock,centre_mouse,10,29,reveal,im0000069.jpg,N_1.png,1,N_2.png,2,N_3.png,3,N_4.png,4,Y_1.png,1,Y_2.png,2,Y_3.png,3,Y_4.png,4,confidence.png,1,guessing.png,2,respond_yes.png,3,respond_no.png,4,Word 4 of 40,1,Image 4 of 5,1,reveal.png,5
1,testBlock,present_trial,11,43,yes_1,im0000069.jpg,N_1.png,1,N_2.png,2,N_3.png,3,N_4.png,4,Y_1.png,1,Y_2.png,2,Y_3.png,3,Y_4.png,4,confidence.png,1,guessing.png,2,respond_yes.png,3,respond_no.png,4,Word 5 of 40,1,Image 4 of 5,1,love,1
1,testBlock,centre_mouse,12,55,reveal,im0000069.jpg,N_1.png,1,N_2.png,2,N_3.png,3,N_4.png,4,Y_1.png,1,Y_2.png,2,Y_3.png,3,Y_4.png,4,confidence.png,1,guessing.png,2,respond_yes.png,3,respond_no.png,4,Word 5 of 40,1,Image 4 of 5,1,reveal.png,5
1,testBlock,present_trial,13,57,yes_4,im0000069.jpg,N_1.png,1,N_2.png,2,N_3.png,3,N_4.png,4,Y_1.png,1,Y_2.png,2,Y_3.png,3,Y_4.png,4,confidence.png,1,guessing.png,2,respond_yes.png,3,respond_no.png,4,Word 6 of 40,1,Image 4 of 5,1,man,8
1,testBlock,centre_mouse,14,53,reveal,im0000069.jpg,N_1.png,1,N_2.png,2,N_3.png,3,N_4.png,4,Y_1.png,1,Y_2.png,2,Y_3.png,3,Y_4.png,4,confidence.png,1,guessing.png,2,respond_yes.png,3,respond_no.png,4,Word 6 of 40,1,Image 4 of 5,1,reveal.png,5
1,testBlock,present_trial,15,32,yes_3,im0000069.jpg,N_1.png,1,N_2.png,2,N_3.png,3,N_4.png,4,Y_1.png,1,Y_2.png,2,Y_3.png,3,Y_4.png,4,confidence.png,1,guessing.png,2,respond_yes.png,3,respond_no.png,4,Word 7 of 40,1,Image 4 of 5,1,vacation,20
1,testBlock,centre_mouse,16,28,reveal,im0000069.jpg,N_1.png,1,N_2.png,2,N_3.png,3,N_4.png,4,Y_1.png,1,Y_2.png,2,Y_3.png,3,Y_4.png,4,confidence.png,1,guessing.png,2,respond_yes.png,3,respond_no.png,4,Word 7 of 40,1,Image 4 of 5,1,reveal.png,5
1,testBlock,present_trial,17,27,yes_3,im0000069.jpg,N_1.png,1,N_2.png,2,N_3.png,3,N_4.png,4,Y_1.png,1,Y_2.png,2,Y_3.png,3,Y_4.png,4,confidence.png,1,guessing.png,2,respond_yes.png,3,respond_no.png,4,Word 8 of 40,1,Image 4 of 5,1,woman,12
1,testBlock,centre_mouse,18,39,reveal,im0000069.jpg,N_1.png,1,N_2.png,2,N_3.png,3,N_4.png,4,Y_1.png,1,Y_2.png,2,Y_3.png,3,Y_4.png,4,confidence.png,1,guessing.png,2,respond_yes.png,3,respond_no.png,4,Word 8 of 40,1,Image 4 of 5,1,reveal.png,5
1,testBlock,absent_trial,19,60,no_4,im0000069.jpg,N_1.png,1,N_2.png,2,N_3.png,3,N_4.png,4,Y_1.png,1,Y_2.png,2,Y_3.png,3,Y_4.png,4,confidence.png,1,guessing.png,2,respond_yes.png,3,respond_no.png,4,Word 9 of 40,1,Image 4 of 5,1,bath,12
1,testBlock,centre_mouse,20,54,reveal,im0000069.jpg,N_1.png,1,N_2.png,2,N_3.png,3,N_4.png,4,Y_1.png,1,Y_2.png,2,Y_3.png,3,Y_4.png,4,confidence.png,1,guessing.png,2,respond_yes.png,3,respond_no.png,4,Word 9 of 40,1,Image 4 of 5,1,reveal.png,5
1,testBlock,present_trial,21,55,yes_4,im0000069.jpg,N_1.png,1,N_2.png,2,N_3.png,3,N_4.png,4,Y_1.png,1,Y_2.png,2,Y_3.png,3,Y_4.png,4,confidence.png,1,guessing.png,2,respond_yes.png,3,respond_no.png,4,Word 10 of 40,1,Image 4 of 5,1,daytime,17
1,testBlock,centre_mouse,22,52,reveal,im0000069.jpg,N_1.png,1,N_2.png,2,N_3.png,3,N_4.png,4,Y_1.png,1,Y_2.png,2,Y_3.png,3,Y_4.png,4,confidence.png,1,guessing.png,2,respond_yes.png,3,respond_no.png,4,Word 10 of 40,1,Image 4 of 5,1,reveal.png,5
1,testBlock,absent_trial,23,54,no_4,im0000069.jpg,N_1.png,1,N_2.png,2,N_3.png,3,N_4.png,4,Y_1.png,1,Y_2.png,2,Y_3.png,3,Y_4.png,4,confidence.png,1,guessing.png,2,respond_yes.png,3,respond_no.png,4,Word 11 of 40,1,Image 4 of 5,1,cat,35
1,testBlock,centre_mouse,24,47,reveal,im0000069.jpg,N_1.png,1,N_2.png,2,N_3.png,3,N_4.png,4,Y_1.png,1,Y_2.png,2,Y_3.png,3,Y_4.png,4,confidence.png,1,guessing.png,2,respond_yes.png,3,respond_no.png,4,Word 11 of 40,1,Image 4 of 5,1,reveal.png,5
1,testBlock,present_trial,25,41,yes_3,im0000069.jpg,N_1.png,1,N_2.png,2,N_3.png,3,N_4.png,4,Y_1.png,1,Y_2.png,2,Y_3.png,3,Y_4.png,4,confidence.png,1,guessing.png,2,respond_yes.png,3,respond_no.png,4,Word 12 of 40,1,Image 4 of 5,1,step,15
1,testBlock,centre_mouse,26,46,reveal,im0000069.jpg,N_1.png,1,N_2.png,2,N_3.png,3,N_4.png,4,Y_1.png,1,Y_2.png,2,Y_3.png,3,Y_4.png,4,confidence.png,1,guessing.png,2,respond_yes.png,3,respond_no.png,4,Word 12 of 40,1,Image 4 of 5,1,reveal.png,5
1,testBlock,present_trial,27,45,yes_4,im0000069.jpg,N_1.png,1,N_2.png,2,N_3.png,3,N_4.png,4,Y_1.png,1,Y_2.png,2,Y_3.png,3,Y_4.png,4,confidence.png,1,guessing.png,2,respond_yes.png,3,respond_no.png,4,Word 13 of 40,1,Image 4 of 5,1,city,5
1,testBlock,centre_mouse,28,40,reveal,im0000069.jpg,N_1.png,1,N_2.png,2,N_3.png,3,N_4.png,4,Y_1.png,1,Y_2.png,2,Y_3.png,3,Y_4.png,4,confidence.png,1,guessing.png,2,respond_yes.png,3,respond_no.png,4,Word 13 of 40,1,Image 4 of 5,1,reveal.png,5
1,testBlock,absent_trial,29,28,no_1,im0000069.jpg,N_1.png,1,N_2.png,2,N_3.png,3,N_4.png,4,Y_1.png,1,Y_2.png,2,Y_3.png,3,Y_4.png,4,confidence.png,1,guessing.png,2,respond_yes.png,3,respond_no.png,4,Word 14 of 40,1,Image 4 of 5,1,outside,26
1,testBlock,centre_mouse,30,44,reveal,im0000069.jpg,N_1.png,1,N_2.png,2,N_3.png,3,N_4.png,4,Y_1.png,1,Y_2.png,2,Y_3.png,3,Y_4.png,4,confidence.png,1,guessing.png,2,respond_yes.png,3,respond_no.png,4,Word 14 of 40,1,Image 4 of 5,1,reveal.png,5
1,testBlock,present_trial,31,40,yes_3,im0000069.jpg,N_1.png,1,N_2.png,2,N_3.png,3,N_4.png,4,Y_1.png,1,Y_2.png,2,Y_3.png,3,Y_4.png,4,confidence.png,1,guessing.png,2,respond_yes.png,3,respond_no.png,4,Word 15 of 40,1,Image 4 of 5,1,sculpture,13
1,testBlock,centre_mouse,32,49,reveal,im0000069.jpg,N_1.png,1,N_2.png,2,N_3.png,3,N_4.png,4,Y_1.png,1,Y_2.png,2,Y_3.png,3,Y_4.png,4,confidence.png,1,guessing.png,2,respond_yes.png,3,respond_no.png,4,Word 15 of 40,1,Image 4 of 5,1,reveal.png,5
1,testBlock,absent_trial,33,21,no_3,im0000069.jpg,N_1.png,1,N_2.png,2,N_3.png,3,N_4.png,4,Y_1.png,1,Y_2.png,2,Y_3.png,3,Y_4.png,4,confidence.png,1,guessing.png,2,respond_yes.png,3,respond_no.png,4,Word 16 of 40,1,Image 4 of 5,1,van,23
1,testBlock,centre_mouse,34,43,reveal,im0000069.jpg,N_1.png,1,N_2.png,2,N_3.png,3,N_4.png,4,Y_1.png,1,Y_2.png,2,Y_3.png,3,Y_4.png,4,confidence.png,1,guessing.png,2,respond_yes.png,3,respond_no.png,4,Word 16 of 40,1,Image 4 of 5,1,reveal.png,5
1,testBlock,absent_trial,35,36,no_1,im0000069.jpg,N_1.png,1,N_2.png,2,N_3.png,3,N_4.png,4,Y_1.png,1,Y_2.png,2,Y_3.png,3,Y_4.png,4,confidence.png,1,guessing.png,2,respond_yes.png,3,respond_no.png,4,Word 17 of 40,1,Image 4 of 5,1,afternoon,5
1,testBlock,centre_mouse,36,51,reveal,im0000069.jpg,N_1.png,1,N_2.png,2,N_3.png,3,N_4.png,4,Y_1.png,1,Y_2.png,2,Y_3.png,3,Y_4.png,4,confidence.png,1,guessing.png,2,respond_yes.png,3,respond_no.png,4,Word 17 of 40,1,Image 4 of 5,1,reveal.png,5
1,testBlock,absent_trial,37,31,no_1,im0000069.jpg,N_1.png,1,N_2.png,2,N_3.png,3,N_4.png,4,Y_1.png,1,Y_2.png,2,Y_3.png,3,Y_4.png,4,confidence.png,1,guessing.png,2,respond_yes.png,3,respond_no.png,4,Word 18 of 40,1,Image 4 of 5,1,rock,18
1,testBlock,centre_mouse,38,62,reveal,im0000069.jpg,N_1.png,1,N_2.png,2,N_3.png,3,N_4.png,4,Y_1.png,1,Y_2.png,2,Y_3.png,3,Y_4.png,4,confidence.png,1,guessing.png,2,respond_yes.png,3,respond_no.png,4,Word 18 of 40,1,Image 4 of 5,1,reveal.png,5
1,testBlock,catch_present_trial,39,54,no_1,im0000069.jpg,N_1.png,1,N_2.png,2,N_3.png,3,N_4.png,4,Y_1.png,1,Y_2.png,2,Y_3.png,3,Y_4.png,4,confidence.png,1,guessing.png,2,respond_yes.png,3,respond_no.png,4,Word 18 of 40,1,Image 4 of 5,1,PRESS: Yes 2,2
1,testBlock,centre_mouse,40,37,reveal,im0000069.jpg,N_1.png,1,N_2.png,2,N_3.png,3,N_4.png,4,Y_1.png,1,Y_2.png,2,Y_3.png,3,Y_4.png,4,confidence.png,1,guessing.png,2,respond_yes.png,3,respond_no.png,4,Word 18 of 40,1,Image 4 of 5,1,reveal.png,5
1,testBlock,absent_trial,41,70,yes_4,im0000069.jpg,N_1.png,1,N_2.png,2,N_3.png,3,N_4.png,4,Y_1.png,1,Y_2.png,2,Y_3.png,3,Y_4.png,4,confidence.png,1,guessing.png,2,respond_yes.png,3,respond_no.png,4,Word 19 of 40,1,Image 4 of 5,1,pencil,2
1,testBlock,centre_mouse,42,38,reveal,im0000069.jpg,N_1.png,1,N_2.png,2,N_3.png,3,N_4.png,4,Y_1.png,1,Y_2.png,2,Y_3.png,3,Y_4.png,4,confidence.png,1,guessing.png,2,respond_yes.png,3,respond_no.png,4,Word 19 of 40,1,Image 4 of 5,1,reveal.png,5
1,testBlock,present_trial,43,35,no_2,im0000069.jpg,N_1.png,1,N_2.png,2,N_3.png,3,N_4.png,4,Y_1.png,1,Y_2.png,2,Y_3.png,3,Y_4.png,4,confidence.png,1,guessing.png,2,respond_yes.png,3,respond_no.png,4,Word 20 of 40,1,Image 4 of 5,1,group,18
1,testBlock,centre_mouse,44,59,reveal,im0000069.jpg,N_1.png,1,N_2.png,2,N_3.png,3,N_4.png,4,Y_1.png,1,Y_2.png,2,Y_3.png,3,Y_4.png,4,confidence.png,1,guessing.png,2,respond_yes.png,3,respond_no.png,4,Word 20 of 40,1,Image 4 of 5,1,reveal.png,5
1,testBlock,present_trial,45,36,yes_4,im0000069.jpg,N_1.png,1,N_2.png,2,N_3.png,3,N_4.png,4,Y_1.png,1,Y_2.png,2,Y_3.png,3,Y_4.png,4,confidence.png,1,guessing.png,2,respond_yes.png,3,respond_no.png,4,Word 21 of 40,1,Image 4 of 5,1,artwork,16
1,testBlock,centre_mouse,46,61,reveal,im0000069.jpg,N_1.png,1,N_2.png,2,N_3.png,3,N_4.png,4,Y_1.png,1,Y_2.png,2,Y_3.png,3,Y_4.png,4,confidence.png,1,guessing.png,2,respond_yes.png,3,respond_no.png,4,Word 21 of 40,1,Image 4 of 5,1,reveal.png,5
1,testBlock,present_trial,47,28,yes_3,im0000069.jpg,N_1.png,1,N_2.png,2,N_3.png,3,N_4.png,4,Y_1.png,1,Y_2.png,2,Y_3.png,3,Y_4.png,4,confidence.png,1,guessing.png,2,respond_yes.png,3,respond_no.png,4,Word 22 of 40,1,Image 4 of 5,1,people,3
1,testBlock,centre_mouse,48,77,reveal,im0000069.jpg,N_1.png,1,N_2.png,2,N_3.png,3,N_4.png,4,Y_1.png,1,Y_2.png,2,Y_3.png,3,Y_4.png,4,confidence.png,1,guessing.png,2,respond_yes.png,3,respond_no.png,4,Word 22 of 40,1,Image 4 of 5,1,reveal.png,5
1,testBlock,present_trial,49,31,no_3,im0000069.jpg,N_1.png,1,N_2.png,2,N_3.png,3,N_4.png,4,Y_1.png,1,Y_2.png,2,Y_3.png,3,Y_4.png,4,confidence.png,1,guessing.png,2,respond_yes.png,3,respond_no.png,4,Word 23 of 40,1,Image 4 of 5,1,look,19
1,testBlock,centre_mouse,50,49,reveal,im0000069.jpg,N_1.png,1,N_2.png,2,N_3.png,3,N_4.png,4,Y_1.png,1,Y_2.png,2,Y_3.png,3,Y_4.png,4,confidence.png,1,guessing.png,2,respond_yes.png,3,respond_no.png,4,Word 23 of 40,1,Image 4 of 5,1,reveal.png,5
1,testBlock,absent_trial,51,36,no_3,im0000069.jpg,N_1.png,1,N_2.png,2,N_3.png,3,N_4.png,4,Y_1.png,1,Y_2.png,2,Y_3.png,3,Y_4.png,4,confidence.png,1,guessing.png,2,respond_yes.png,3,respond_no.png,4,Word 24 of 40,1,Image 4 of 5,1,stare,24
1,testBlock,centre_mouse,52,55,reveal,im0000069.jpg,N_1.png,1,N_2.png,2,N_3.png,3,N_4.png,4,Y_1.png,1,Y_2.png,2,Y_3.png,3,Y_4.png,4,confidence.png,1,guessing.png,2,respond_yes.png,3,respond_no.png,4,Word 24 of 40,1,Image 4 of 5,1,reveal.png,5
1,testBlock,absent_trial,53,38,yes_2,im0000069.jpg,N_1.png,1,N_2.png,2,N_3.png,3,N_4.png,4,Y_1.png,1,Y_2.png,2,Y_3.png,3,Y_4.png,4,confidence.png,1,guessing.png,2,respond_yes.png,3,respond_no.png,4,Word 25 of 40,1,Image 4 of 5,1,city,9
1,testBlock,centre_mouse,54,49,reveal,im0000069.jpg,N_1.png,1,N_2.png,2,N_3.png,3,N_4.png,4,Y_1.png,1,Y_2.png,2,Y_3.png,3,Y_4.png,4,confidence.png,1,guessing.png,2,respond_yes.png,3,respond_no.png,4,Word 25 of 40,1,Image 4 of 5,1,reveal.png,5
1,testBlock,absent_trial,55,72,no_3,im0000069.jpg,N_1.png,1,N_2.png,2,N_3.png,3,N_4.png,4,Y_1.png,1,Y_2.png,2,Y_3.png,3,Y_4.png,4,confidence.png,1,guessing.png,2,respond_yes.png,3,respond_no.png,4,Word 26 of 40,1,Image 4 of 5,1,table,17
1,testBlock,centre_mouse,56,44,reveal,im0000069.jpg,N_1.png,1,N_2.png,2,N_3.png,3,N_4.png,4,Y_1.png,1,Y_2.png,2,Y_3.png,3,Y_4.png,4,confidence.png,1,guessing.png,2,respond_yes.png,3,respond_no.png,4,Word 26 of 40,1,Image 4 of 5,1,reveal.png,5
1,testBlock,catch_absent_trial,57,53,no_3,im0000069.jpg,N_1.png,1,N_2.png,2,N_3.png,3,N_4.png,4,Y_1.png,1,Y_2.png,2,Y_3.png,3,Y_4.png,4,confidence.png,1,guessing.png,2,respond_yes.png,3,respond_no.png,4,Word 26 of 40,1,Image 4 of 5,1,PRESS: No 1,1
1,testBlock,centre_mouse,58,46,reveal,im0000069.jpg,N_1.png,1,N_2.png,2,N_3.png,3,N_4.png,4,Y_1.png,1,Y_2.png,2,Y_3.png,3,Y_4.png,4,confidence.png,1,guessing.png,2,respond_yes.png,3,respond_no.png,4,Word 26 of 40,1,Image 4 of 5,1,reveal.png,5
1,testBlock,present_trial,59,24,no_1,im0000069.jpg,N_1.png,1,N_2.png,2,N_3.png,3,N_4.png,4,Y_1.png,1,Y_2.png,2,Y_3.png,3,Y_4.png,4,confidence.png,1,guessing.png,2,respond_yes.png,3,respond_no.png,4,Word 27 of 40,1,Image 4 of 5,1,statue,2
1,testBlock,centre_mouse,60,52,reveal,im0000069.jpg,N_1.png,1,N_2.png,2,N_3.png,3,N_4.png,4,Y_1.png,1,Y_2.png,2,Y_3.png,3,Y_4.png,4,confidence.png,1,guessing.png,2,respond_yes.png,3,respond_no.png,4,Word 27 of 40,1,Image 4 of 5,1,reveal.png,5
1,testBlock,present_trial,61,36,yes_2,im0000069.jpg,N_1.png,1,N_2.png,2,N_3.png,3,N_4.png,4,Y_1.png,1,Y_2.png,2,Y_3.png,3,Y_4.png,4,confidence.png,1,guessing.png,2,respond_yes.png,3,respond_no.png,4,Word 28 of 40,1,Image 4 of 5,1,walk,7
1,testBlock,centre_mouse,62,35,reveal,im0000069.jpg,N_1.png,1,N_2.png,2,N_3.png,3,N_4.png,4,Y_1.png,1,Y_2.png,2,Y_3.png,3,Y_4.png,4,confidence.png,1,guessing.png,2,respond_yes.png,3,respond_no.png,4,Word 28 of 40,1,Image 4 of 5,1,reveal.png,5
1,testBlock,absent_trial,63,33,no_4,im0000069.jpg,N_1.png,1,N_2.png,2,N_3.png,3,N_4.png,4,Y_1.png,1,Y_2.png,2,Y_3.png,3,Y_4.png,4,confidence.png,1,guessing.png,2,respond_yes.png,3,respond_no.png,4,Word 29 of 40,1,Image 4 of 5,1,orange-color,1
