subject	blockcode	trialcode	trialnum	latency	response	values.imageName	stimulusitem1	stimulusnumber1	stimulusitem2	stimulusnumber2	stimulusitem3	stimulusnumber3	stimulusitem4	stimulusnumber4	stimulusitem5	stimulusnumber5	stimulusitem6	stimulusnumber6	stimulusitem7	stimulusnumber7	stimulusitem8	stimulusnumber8	stimulusitem9	stimulusnumber9	stimulusitem10	stimulusnumber10	stimulusitem11	stimulusnumber11	stimulusitem12	stimulusnumber12	stimulusitem13	stimulusnumber13	stimulusitem14	stimulusnumber14	stimulusitem15	stimulusnumber15
1	practiceBlock	practice	1	1	0	Picture1.jpg	+	1	Picture1.jpg	1	mask5.jpg	5	mask2.jpg	2	mask1.jpg	1	mask4.jpg	4	mask4.jpg	4	0	0	0	0	0	0	0	0	0	0	0	0	0	0	0	0
1	practiceBlock	centre_mouse	2	52	reveal	Picture1.jpg	N_1.png	1	N_2.png	2	N_3.png	3	N_4.png	4	Y_1.png	1	Y_2.png	2	Y_3.png	3	Y_4.png	4	confidence.png	1	guessing.png	2	respond_yes.png	3	respond_no.png	4	Word 0 of 12	1	Image 1 of 3	1	reveal.png	5
1	practiceBlock	practice_absent_trial	3	43	no_3	Picture1.jpg	N_1.png	1	N_2.png	2	N_3.png	3	N_4.png	4	Y_1.png	1	Y_2.png	2	Y_3.png	3	Y_4.png	4	confidence.png	1	guessing.png	2	respond_yes.png	3	respond_no.png	4	Word 1 of 12	1	Image 1 of 3	1	blanket	1
1	practiceBlock	centre_mouse	4	57	reveal	Picture1.jpg	N_1.png	1	N_2.png	2	N_3.png	3	N_4.png	4	Y_1.png	1	Y_2.png	2	Y_3.png	3	Y_4.png	4	confidence.png	1	guessing.png	2	respond_yes.png	3	respond_no.png	4	Word 1 of 12	1	Image 1 of 3	1	reveal.png	5
1	practiceBlock	practice_absent_trial	5	27	no_4	Picture1.jpg	N_1.png	1	N_2.png	2	N_3.png	3	N_4.png	4	Y_1.png	1	Y_2.png	2	Y_3.png	3	Y_4.png	4	confidence.png	1	guessing.png	2	respond_yes.png	3	respond_no.png	4	Word 2 of 12	1	Image 1 of 3	1	crow	2
1	practiceBlock	centre_mouse	6	34	reveal	Picture1.jpg	N_1.png	1	N_2.png	2	N_3.png	3	N_4.png	4	Y_1.png	1	Y_2.png	2	Y_3.png	3	Y_4.png	4	confidence.png	1	guessing.png	2	respond_yes.png	3	respond_no.png	4	Word 2 of 12	1	Image 1 of 3	1	reveal.png	5
1	practiceBlock	practice_present_trial	7	28	no_2	Picture1.jpg	N_1.png	1	N_2.png	2	N_3.png	3	N_4.png	4	Y_1.png	1	Y_2.png	2	Y_3.png	3	Y_4.png	4	confidence.png	1	guessing.png	2	respond_yes.png	3	respond_no.png	4	Word 3 of 12	1	Image 1 of 3	1	love	2
1	practiceBlock	centre_mouse	8	18	reveal	Picture1.jpg	N_1.png	1	N_2.png	2	N_3.png	3	N_4.png	4	Y_1.png	1	Y_2.png	2	Y_3.png	3	Y_4.png	4	confidence.png	1	guessing.png	2	respond_yes.png	3	respond_no.png	4	Word 3 of 12	1	Image 1 of 3	1	reveal.png	5
1	practiceBlock	practice_absent_trial	9	38	no_3	Picture1.jpg	N_1.png	1	N_2.png	2	N_3.png	3	N_4.png	4	Y_1.png	1	Y_2.png	2	Y_3.png	3	Y_4.png	4	confidence.png	1	guessing.png	2	respond_yes.png	3	respond_no.png	4	Word 4 of 12	1	Image 1 of 3	1	wall	3
1	practiceBlock	centre_mouse	10	31	reveal	Picture1.jpg	N_1.png	1	N_2.png	2	N_3.png	3	N_4.png	4	Y_1.png	1	Y_2.png	2	Y_3.png	3	Y_4.png	4	confidence.png	1	guessing.png	2	respond_yes.png	3	respond_no.png	4	Word 4 of 12	1	Image 1 of 3	1	reveal.png	5
1	practiceBlock	practice_present_trial	11	29	yes_2	Picture1.jpg	N_1.png	1	N_2.png	2	N_3.png	3	N_4.png	4	Y_1.png	1	Y_2.png	2	Y_3.png	3	Y_4.png	4	confidence.png	1	guessing.png	2	respond_yes.png	3	respond_no.png	4	Word 5 of 12	1	Image 1 of 3	1	outline	5
1	practiceBlock	centre_mouse	12	41	reveal	Picture1.jpg	N_1.png	1	N_2.png	2	N_3.png	3	N_4.png	4	Y_1.png	1	Y_2.png	2	Y_3.png	3	Y_4.png	4	confidence.png	1	guessing.png	2	respond_yes.png	3	respond_no.png	4	Word 5 of 12	1	Image 1 of 3	1	reveal.png	5
1	practiceBlock	practice_absent_trial	13	35	no_3	Picture1.jpg	N_1.png	1	N_2.png	2	N_3.png	3	N_4.png	4	Y_1.png	1	Y_2.png	2	Y_3.png	3	Y_4.png	4	confidence.png	1	guessing.png	2	respond_yes.png	3	respond_no.png	4	Word 6 of 12	1	Image 1 of 3	1	line	6
1	practiceBlock	centre_mouse	14	17	reveal	Picture1.jpg	N_1.png	1	N_2.png	2	N_3.png	3	N_4.png	4	Y_1.png	1	Y_2.png	2	Y_3.png	3	Y_4.png	4	confidence.png	1	guessing.png	2	respond_yes.png	3	respond_no.png	4	Word 6 of 12	1	Image 1 of 3	1	reveal.png	5
1	practiceBlock	practice_absent_trial	15	31	yes_1	Picture1.jpg	N_1.png	1	N_2.png	2	N_3.png	3	N_4.png	4	Y_1.png	1	Y_2.png	2	Y_3.png	3	Y_4.png	4	confidence.png	1	guessing.png	2	respond_yes.png	3	respond_no.png	4	Word 7 of 12	1	Image 1 of 3	1	day	4
1	practiceBlock	centre_mouse	16	45	reveal	Picture1.jpg	N_1.png	1	N_2.png	2	N_3.png	3	N_4.png	4	Y_1.png	1	Y_2.png	2	Y_3.png	3	Y_4.png	4	confidence.png	1	guessing.png	2	respond_yes.png	3	respond_no.png	4	Word 7 of 12	1	Image 1 of 3	1	reveal.png	5
1	practiceBlock	practice_present_trial	17	38	no_3	Picture1.jpg	N_1.png	1	N_2.png	2	N_3.png	3	N_4.png	4	Y_1.png	1	Y_2.png	2	Y_3.png	3	Y_4.png	4	confidence.png	1	guessing.png	2	respond_yes.png	3	respond_no.png	4	Word 8 of 12	1	Image 1 of 3	1	color	6
1	practiceBlock	centre_mouse	18	46	reveal	Picture1.jpg	N_1.png	1	N_2.png	2	N_3.png	3	N_4.png	4	Y_1.png	1	Y_2.png	2	Y_3.png	3	Y_4.png	4	confidence.png	1	guessing.png	2	respond_yes.png	3	respond_no.png	4	Word 8 of 12	1	Image 1 of 3	1	reveal.png	5
1	practiceBlock	practice_absent_trial	19	46	no_4	Picture1.jpg	N_1.png	1	N_2.png	2	N_3.png	3	N_4.png	4	Y_1.png	1	Y_2.png	2	Y_3.png	3	Y_4.png	4	confidence.png	1	guessing.png	2	respond_yes.png	3	respond_no.png	4	Word 9 of 12	1	Image 1 of 3	1	dome	5
1	practiceBlock	centre_mouse	20	39	reveal	Picture1.jpg	N_1.png	1	N_2.png	2	N_3.png	3	N_4.png	4	Y_1.png	1	Y_2.png	2	Y_3.png	3	Y_4.png	4	confidence.png	1	guessing.png	2	respond_yes.png	3	respond_no.png	4	Word 9 of 12	1	Image 1 of 3	1	reveal.png	5
1	practiceBlock	practice_present_trial	21	34	yes_4	Picture1.jpg	N_1.png	1	N_2.png	2	N_3.png	3	N_4.png	4	Y_1.png	1	Y_2.png	2	Y_3.png	3	Y_4.png	4	confidence.png	1	guessing.png	2	respond_yes.png	3	respond_no.png	4	Word 10 of 12	1	Image 1 of 3	1	black	4
1	practiceBlock	centre_mouse	22	37	reveal	Picture1.jpg	N_1.png	1	N_2.png	2	N_3.png	3	N_4.png	4	Y_1.png	1	Y_2.png	2	Y_3.png	3	Y_4.png	4	confidence.png	1	guessing.png	2	respond_yes.png	3	respond_no.png	4	Word 10 of 12	1	Image 1 of 3	1	reveal.png	5
1	practiceBlock	practice_present_trial	23	53	yes_3	Picture1.jpg	N_1.png	1	N_2.png	2	N_3.png	3	N_4.png	4	Y_1.png	1	Y_2.png	2	Y_3.png	3	Y_4.png	4	confidence.png	1	guessing.png	2	respond_yes.png	3	respond_no.png	4	Word 11 of 12	1	Image 1 of 3	1	heart	1
1	practiceBlock	centre_mouse	24	45	reveal	Picture1.jpg	N_1.png	1	N_2.png	2	N_3.png	3	N_4.png	4	Y_1.png	1	Y_2.png	2	Y_3.png	3	Y_4.png	4	confidence.png	1	guessing.png	2	respond_yes.png	3	respond_no.png	4	Word 11 of 12	1	Image 1 of 3	1	reveal.png	5
1	practiceBlock	practice_present_trial	25	54	no_3	Picture1.jpg	N_1.png	1	N_2.png	2	N_3.png	3	N_4.png	4	Y_1.png	1	Y_2.png	2	Y_3.png	3	Y_4.png	4	confidence.png	1	guessing.png	2	respond_yes.png	3	respond_no.png	4	Word 12 of 12	1	Image 1 of 3	1	red	3
1	practiceBlock	centre_mouse	26	51	reveal	Picture1.jpg	N_1.png	1	N_2.png	2	N_3.png	3	N_4.png	4	Y_1.png	1	Y_2.png	2	Y_3.png	3	Y_4.png	4	confidence.png	1	guessing.png	2	respond_yes.png	3	respond_no.png	4	Word 12 of 12	1	Image 1 of 3	1	reveal.png	5
1	practiceBlock	catch_trial	27	55	yes_4	Picture1.jpg	N_1.png	1	N_2.png	2	N_3.png	3	N_4.png	4	Y_1.png	1	Y_2.png	2	Y_3.png	3	Y_4.png	4	confidence.png	1	guessing.png	2	respond_yes.png	3	respond_no.png	4	Word 12 of 12	1	Image 1 of 3	1	PRESS: Yes 3	3
1	practiceBlock	centre_mouse	28	46	reveal	Picture1.jpg	N_1.png	1	N_2.png	2	N_3.png	3	N_4.png	4	Y_1.png	1	Y_2.png	2	Y_3.png	3	Y_4.png	4	confidence.png	1	guessing.png	2	respond_yes.png	3	respond_no.png	4	Word 12 of 12	1	Image 1 of 3	1	reveal.png	5
1	practiceBlock	catch_trial	29	22	yes_4	Picture1.jpg	N_1.png	1	N_2.png	2	N_3.png	3	N_4.png	4	Y_1.png	1	Y_2.png	2	Y_3.png	3	Y_4.png	4	confidence.png	1	guessing.png	2	respond_yes.png	3	respond_no.png	4	Word 12 of 12	1	Image 1 of 3	1	PRESS: Yes 2	2
1	practiceBlock	centre_mouse	30	36	reveal	Picture1.jpg	N_1.png	1	N_2.png	2	N_3.png	3	N_4.png	4	Y_1.png	1	Y_2.png	2	Y_3.png	3	Y_4.png	4	confidence.png	1	guessing.png	2	respond_yes.png	3	respond_no.png	4	Word 12 of 12	1	Image 1 of 3	1	reveal.png	5
1	practiceBlock	practice	1	1	0	Picture1.jpg	+	1	Picture3.jpg	3	mask4.jpg	4	mask4.jpg	4	mask5.jpg	5	mask5.jpg	5	mask2.jpg	2	0	0	0	0	0	0	0	0	0	0	0	0	0	0	0	0
1	practiceBlock	centre_mouse	2	59	reveal	Picture1.jpg	N_1.png	1	N_2.png	2	N_3.png	3	N_4.png	4	Y_1.png	1	Y_2.png	2	Y_3.png	3	Y_4.png	4	confidence.png	1	guessing.png	2	respond_yes.png	3	respond_no.png	4	Word 0 of 12	1	Image 2 of 3	1	reveal.png	5
1	practiceBlock	practice_present_trial	3	33	yes_1	Picture3.jpg	N_1.png	1	N_2.png	2	N_3.png	3	N_4.png	4	Y_1.png	1	Y_2.png	2	Y_3.png	3	Y_4.png	4	confidence.png	1	guessing.png	2	respond_yes.png	3	respond_no.png	4	Word 1 of 12	1	Image 2 of 3	1	blue	5
1	practiceBlock	centre_mouse	4	45	reveal	Picture3.jpg	N_1.png	1	N_2.png	2	N_3.png	3	N_4.png	4	Y_1.png	1	Y_2.png	2	Y_3.png	3	Y_4.png	4	confidence.png	1	guessing.png	2	respond_yes.png	3	respond_no.png	4	Word 1 of 12	1	Image 2 of 3	1	reveal.png	5
1	practiceBlock	practice_absent_trial	5	57	yes_1	Picture3.jpg	N_1.png	1	N_2.png	2	N_3.png	3	N_4.png	4	Y_1.png	1	Y_2.png	2	Y_3.png	3	Y_4.png	4	confidence.png	1	guessing.png	2	respond_yes.png	3	respond_no.png	4	Word 2 of 12	1	Image 2 of 3	1	horse	2
1	practiceBlock	centre_mouse	6	27	reveal	Picture3.jpg	N_1.png	1	N_2.png	2	N_3.png	3	N_4.png	4	Y_1.png	1	Y_2.png	2	Y_3.png	3	Y_4.png	4	confidence.png	1	guessing.png	2	respond_yes.png	3	respond_no.png	4	Word 2 of 12	1	Image 2 of 3	1	reveal.png	5
1	practiceBlock	practice_absent_trial	7	15	yes_4	Picture3.jpg	N_1.png	1	N_2.png	2	N_3.png	3	N_4.png	4	Y_1.png	1	Y_2.png	2	Y_3.png	3	Y_4.png	4	confidence.png	1	guessing.png	2	respond_yes.png	3	respond_no.png	4	Word 3 of 12	1	Image 2 of 3	1	blue-hat	6
1	practiceBlock	centre_mouse	8	45	reveal	Picture3.jpg	N_1.png	1	N_2.png	2	N_3.png	3	N_4.png	4	Y_1.png	1	Y_2.png	2	Y_3.png	3	Y_4.png	4	confidence.png	1	guessing.png	2	respond_yes.png	3	respond_no.png	4	Word 3 of 12	1	Image 2 of 3	1	reveal.png	5
1	practiceBlock	practice_present_trial	9	35	yes_1	Picture3.jpg	N_1.png	1	N_2.png	2	N_3.png	3	N_4.png	4	Y_1.png	1	Y_2.png	2	Y_3.png	3	Y_4.png	4	confidence.png	1	guessing.png	2	respond_yes.png	3	respond_no.png	4	Word 4 of 12	1	Image 2 of 3	1	sun	2
1	practiceBlock	centre_mouse	10	68	reveal	Picture3.jpg	N_1.png	1	N_2.png	2	N_3.png	3	N_4.png	4	Y_1.png	1	Y_2.png	2	Y_3.png	3	Y_4.png	4	confidence.png	1	guessing.png	2	respond_yes.png	3	respond_no.png	4	Word 4 of 12	1	Image 2 of 3	1	reveal.png	5
1	practiceBlock	practice_absent_trial	11	27	no_4	Picture3.jpg	N_1.png	1	N_2.png	2	N_3.png	3	N_4.png	4	Y_1.png	1	Y_2.png	2	Y_3.png	3	Y_4.png	4	confidence.png	1	guessing.png	2	respond_yes.png	3	respond_no.png	4	Word 5 of 12	1	Image 2 of 3	1	coat	3
1	practiceBlock	centre_mouse	12	42	reveal	Picture3.jpg	N_1.png	1	N_2.png	2	N_3.png	3	N_4.png	4	Y_1.png	1	Y_2.png	2	Y_3.png	3	Y_4.png	4	confidence.png	1	guessing.png	2	respond_yes.png	3	respond_no.png	4	Word 5 of 12	1	Image 2 of 3	1	reveal.png	5
1	practiceBlock	practice_absent_trial	13	24	no_4	Picture3.jpg	N_1.png	1	N_2.png	2	N_3.png	3	N_4.png	4	Y_1.png	1	Y_2.png	2	Y_3.png	3	Y_4.png	4	confidence.png	1	guessing.png	2	respond_yes.png	3	respond_no.png	4	Word 6 of 12	1	Image 2 of 3	1	zoomed-in	1
1	practiceBlock	centre_mouse	14	44	reveal	Picture3.jpg	N_1.png	1	N_2.png	2	N_3.png	3	N_4.png	4	Y_1.png	1	Y_2.png	2	Y_3.png	3	Y_4.png	4	confidence.png	1	guessing.png	2	respond_yes.png	3	respond_no.png	4	Word 6 of 12	1	Image 2 of 3	1	reveal.png	5
1	practiceBlock	practice_present_trial	15	44	no_4	Picture3.jpg	N_1.png	1	N_2.png	2	N_3.png	3	N_4.png	4	Y_1.png	1	Y_2.png	2	Y_3.png	3	Y_4.png	4	confidence.png	1	guessing.png	2	respond_yes.png	3	respond_no.png	4	Word 7 of 12	1	Image 2 of 3	1	sky	6
1	practiceBlock	centre_mouse	16	58	reveal	Picture3.jpg	N_1.png	1	N_2.png	2	N_3.png	3	N_4.png	4	Y_1.png	1	Y_2.png	2	Y_3.png	3	Y_4.png	4	confidence.png	1	guessing.png	2	respond_yes.png	3	respond_no.png	4	Word 7 of 12	1	Image 2 of 3	1	reveal.png	5
1	practiceBlock	practice_absent_trial	17	44	no_3	Picture3.jpg	N_1.png	1	N_2.png	2	N_3.png	3	N_4.png	4	Y_1.png	1	Y_2.png	2	Y_3.png	3	Y_4.png	4	confidence.png	1	guessing.png	2	respond_yes.png	3	respond_no.png	4	Word 8 of 12	1	Image 2 of 3	1	old	4
1	practiceBlock	centre_mouse	18	59	reveal	Picture3.jpg	N_1.png	1	N_2.png	2	N_3.png	3	N_4.png	4	Y_1.png	1	Y_2.png	2	Y_3.png	3	Y_4.png	4	confidence.png	1	guessing.png	2	respond_yes.png	3	respond_no.png	4	Word 8 of 12	1	Image 2 of 3	1	reveal.png	5
1	practiceBlock	practice_absent_trial	19	32	no_4	Picture3.jpg	N_1.png	1	N_2.png	2	N_3.png	3	N_4.png	4	Y_1.png	1	Y_2.png	2	Y_3.png	3	Y_4.png	4	confidence.png	1	guessing.png	2	respond_yes.png	3	respond_no.png	4	Word 9 of 12	1	Image 2 of 3	1	stand	5
1	practiceBlock	centre_mouse	20	48	reveal	Picture3.jpg	N_1.png	1	N_2.png	2	N_3.png	3	N_4.png	4	Y_1.png	1	Y_2.png	2	Y_3.png	3	Y_4.png	4	confidence.png	1	guessing.png	2	respond_yes.png	3	respond_no.png	4	Word 9 of 12	1	Image 2 of 3	1	reveal.png	5
1	practiceBlock	practice_present_trial	21	37	no_4	Picture3.jpg	N_1.png	1	N_2.png	2	N_3.png	3	N_4.png	4	Y_1.png	1	Y_2.png	2	Y_3.png	3	Y_4.png	4	confidence.png	1	guessing.png	2	respond_yes.png	3	respond_no.png	4	Word 10 of 12	1	Image 2 of 3	1	landscape	4
1	practiceBlock	centre_mouse	22	52	reveal	Picture3.jpg	N_1.png	1	N_2.png	2	N_3.png	3	N_4.png	4	Y_1.png	1	Y_2.png	2	Y_3.png	3	Y_4.png	4	confidence.png	1	guessing.png	2	respond_yes.png	3	respond_no.png	4	Word 10 of 12	1	Image 2 of 3	1	reveal.png	5
1	practiceBlock	practice_present_trial	23	51	yes_2	Picture3.jpg	N_1.png	1	N_2.png	2	N_3.png	3	N_4.png	4	Y_1.png	1	Y_2.png	2	Y_3.png	3	Y_4.png	4	confidence.png	1	guessing.png	2	respond_yes.png	3	respond_no.png	4	Word 11 of 12	1	Image 2 of 3	1	cloud	3
1	practiceBlock	centre_mouse	24	53	reveal	Picture3.jpg	N_1.png	1	N_2.png	2	N_3.png	3	N_4.png	4	Y_1.png	1	Y_2.png	2	Y_3.png	3	Y_4.png	4	confidence.png	1	guessing.png	2	respond_yes.png	3	respond_no.png	4	Word 11 of 12	1	Image 2 of 3	1	reveal.png	5
1	practiceBlock	practice_present_trial	25	45	yes_4	Picture3.jpg	N_1.png	1	N_2.png	2	N_3.png	3	N_4.png	4	Y_1.png	1	Y_2.png	2	Y_3.png	3	Y_4.png	4	confidence.png	1	guessing.png	2	respond_yes.png	3	respond_no.png	4	Word 12 of 12	1	Image 2 of 3	1	mountain	1
1	practiceBlock	centre_mouse	26	49	reveal	Picture3.jpg	N_1.png	1	N_2.png	2	N_3.png	3	N_4.png	4	Y_1.png	1	Y_2.png	2	Y_3.png	3	Y_4.png	4	confidence.png	1	guessing.png	2	respond_yes.png	3	respond_no.png	4	Word 12 of 12	1	Image 2 of 3	1	reveal.png	5
1	practiceBlock	catch_trial	27	60	yes_1	Picture3.jpg	N_1.png	1	N_2.png	2	N_3.png	3	N_4.png	4	Y_1.png	1	Y_2.png	2	Y_3.png	3	Y_4.png	4	confidence.png	1	guessing.png	2	respond_yes.png	3	respond_no.png	4	Word 12 of 12	1	Image 2 of 3	1	PRESS: No 3	7
1	practiceBlock	centre_mouse	28	49	reveal	Picture3.jpg	N_1.png	1	N_2.png	2	N_3.png	3	N_4.png	4	Y_1.png	1	Y_2.png	2	Y_3.png	3	Y_4.png	4	confidence.png	1	guessing.png	2	respond_yes.png	3	respond_no.png	4	Word 12 of 12	1	Image 2 of 3	1	reveal.png	5
1	practiceBlock	catch_trial	29	48	yes_4	Picture3.jpg	N_1.png	1	N_2.png	2	N_3.png	3	N_4.png	4	Y_1.png	1	Y_2.png	2	Y_3.png	3	Y_4.png	4	confidence.png	1	guessing.png	2	respond_yes.png	3	respond_no.png	4	Word 12 of 12	1	Image 2 of 3	1	PRESS: Yes 1	1
1	practiceBlock	centre_mouse	30	32	reveal	Picture3.jpg	N_1.png	1	N_2.png	2	N_3.png	3	N_4.png	4	Y_1.png	1	Y_2.png	2	Y_3.png	3	Y_4.png	4	confidence.png	1	guessing.png	2	respond_yes.png	3	respond_no.png	4	Word 12 of 12	1	Image 2 of 3	1	reveal.png	5
1	practiceBlock	practice	1	1	0	Picture3.jpg	+	1	Picture2.jpg	2	mask3.jpg	3	mask3.jpg	3	mask4.jpg	4	mask1.jpg	1	mask3.jpg	3	0	0	0	0	0	0	0	0	0	0	0	0	0	0	0	0
1	practiceBlock	centre_mouse	2	40	reveal	Picture3.jpg	N_1.png	1	N_2.png	2	N_3.png	3	N_4.png	4	Y_1.png	1	Y_2.png	2	Y_3.png	3	Y_4.png	4	confidence.png	1	guessing.png	2	respond_yes.png	3	respond_no.png	4	Word 0 of 12	1	Image 3 of 3	1	reveal.png	5
1	practiceBlock	practice_present_trial	3	57	yes_1	Picture2.jpg	N_1.png	1	N_2.png	2	N_3.png	3	N_4.png	4	Y_1.png	1	Y_2.png	2	Y_3.png	3	Y_4.png	4	confidence.png	1	guessing.png	2	respond_yes.png	3	respond_no.png	4	Word 1 of 12	1	Image 3 of 3	1	yellow	2
1	practiceBlock	centre_mouse	4	54	reveal	Picture2.jpg	N_1.png	1	N_2.png	2	N_3.png	3	N_4.png	4	Y_1.png	1	Y_2.png	2	Y_3.png	3	Y_4.png	4	confidence.png	1	guessing.png	2	respond_yes.png	3	respond_no.png	4	Word 1 of 12	1	Image 3 of 3	1	reveal.png	5
1	practiceBlock	practice_present_trial	5	67	no_4	Picture2.jpg	N_1.png	1	N_2.png	2	N_3.png	3	N_4.png	4	Y_1.png	1	Y_2.png	2	Y_3.png	3	Y_4.png	4	confidence.png	1	guessing.png	2	respond_yes.png	3	respond_no.png	4	Word 2 of 12	1	Image 3 of 3	1	emoji	6
1	practiceBlock	centre_mouse	6	41	reveal	Picture2.jpg	N_1.png	1	N_2.png	2	N_3.png	3	N_4.png	4	Y_1.png	1	Y_2.png	2	Y_3.png	3	Y_4.png	4	confidence.png	1	guessing.png	2	respond_yes.png	3	respond_no.png	4	Word 2 of 12	1	Image 3 of 3	1	reveal.png	5
1	practiceBlock	practice_absent_trial	7	54	no_1	Picture2.jpg	N_1.png	1	N_2.png	2	N_3.png	3	N_4.png	4	Y_1.png	1	Y_2.png	2	Y_3.png	3	Y_4.png	4	confidence.png	1	guessing.png	2	respond_yes.png	3	respond_no.png	4	Word 3 of 12	1	Image 3 of 3	1	man	6
1	practiceBlock	centre_mouse	8	51	reveal	Picture2.jpg	N_1.png	1	N_2.png	2	N_3.png	3	N_4.png	4	Y_1.png	1	Y_2.png	2	Y_3.png	3	Y_4.png	4	confidence.png	1	guessing.png	2	respond_yes.png	3	respond_no.png	4	Word 3 of 12	1	Image 3 of 3	1	reveal.png	5
1	practiceBlock	practice_absent_trial	9	71	no_1	Picture2.jpg	N_1.png	1	N_2.png	2	N_3.png	3	N_4.png	4	Y_1.png	1	Y_2.png	2	Y_3.png	3	Y_4.png	4	confidence.png	1	guessing.png	2	respond_yes.png	3	respond_no.png	4	Word 4 of 12	1	Image 3 of 3	1	metal	3
1	practiceBlock	centre_mouse	10	42	reveal	Picture2.jpg	N_1.png	1	N_2.png	2	N_3.png	3	N_4.png	4	Y_1.png	1	Y_2.png	2	Y_3.png	3	Y_4.png	4	confidence.png	1	guessing.png	2	respond_yes.png	3	respond_no.png	4	Word 4 of 12	1	Image 3 of 3	1	reveal.png	5
1	practiceBlock	practice_absent_trial	11	44	no_4	Picture2.jpg	N_1.png	1	N_2.png	2	N_3.png	3	N_4.png	4	Y_1.png	1	Y_2.png	2	Y_3.png	3	Y_4.png	4	confidence.png	1	guessing.png	2	respond_yes.png	3	respond_no.png	4	Word 5 of 12	1	Image 3 of 3	1	grey-clothes	4
1	practiceBlock	centre_mouse	12	37	reveal	Picture2.jpg	N_1.png	1	N_2.png	2	N_3.png	3	N_4.png	4	Y_1.png	1	Y_2.png	2	Y_3.png	3	Y_4.png	4	confidence.png	1	guessing.png	2	respond_yes.png	3	respond_no.png	4	Word 5 of 12	1	Image 3 of 3	1	reveal.png	5
1	practiceBlock	practice_present_trial	13	37	no_3	Picture2.jpg	N_1.png	1	N_2.png	2	N_3.png	3	N_4.png	4	Y_1.png	1	Y_2.png	2	Y_3.png	3	Y_4.png	4	confidence.png	1	guessing.png	2	respond_yes.png	3	respond_no.png	4	Word 6 of 12	1	Image 3 of 3	1	eyes	3
1	practiceBlock	centre_mouse	14	57	reveal	Picture2.jpg	N_1.png	1	N_2.png	2	N_3.png	3	N_4.png	4	Y_1.png	1	Y_2.png	2	Y_3.png	3	Y_4.png	4	confidence.png	1	guessing.png	2	respond_yes.png	3	respond_no.png	4	Word 6 of 12	1	Image 3 of 3	1	reveal.png	5
1	practiceBlock	practice_absent_trial	15	64	yes_3	Picture2.jpg	N_1.png	1	N_2.png	2	N_3.png	3	N_4.png	4	Y_1.png	1	Y_2.png	2	Y_3.png	3	Y_4.png	4	confidence.png	1	guessing.png	2	respond_yes.png	3	respond_no.png	4	Word 7 of 12	1	Image 3 of 3	1	beauty	2
1	practiceBlock	centre_mouse	16	48	reveal	Picture2.jpg	N_1.png	1	N_2.png	2	N_3.png	3	N_4.png	4	Y_1.png	1	Y_2.png	2	Y_3.png	3	Y_4.png	4	confidence.png	1	guessing.png	2	respond_yes.png	3	respond_no.png	4	Word 7 of 12	1	Image 3 of 3	1	reveal.png	5
1	practiceBlock	practice_absent_trial	17	40	no_4	Picture2.jpg	N_1.png	1	N_2.png	2	N_3.png	3	N_4.png	4	Y_1.png	1	Y_2.png	2	Y_3.png	3	Y_4.png	4	confidence.png	1	guessing.png	2	respond_yes.png	3	respond_no.png	4	Word 8 of 12	1	Image 3 of 3	1	anxious	5
1	practiceBlock	centre_mouse	18	44	reveal	Picture2.jpg	N_1.png	1	N_2.png	2	N_3.png	3	N_4.png	4	Y_1.png	1	Y_2.png	2	Y_3.png	3	Y_4.png	4	confidence.png	1	guessing.png	2	respond_yes.png	3	respond_no.png	4	Word 8 of 12	1	Image 3 of 3	1	reveal.png	5
1	practiceBlock	practice_present_trial	19	42	yes_3	Picture2.jpg	N_1.png	1	N_2.png	2	N_3.png	3	N_4.png	4	Y_1.png	1	Y_2.png	2	Y_3.png	3	Y_4.png	4	confidence.png	1	guessing.png	2	respond_yes.png	3	respond_no.png	4	Word 9 of 12	1	Image 3 of 3	1	face	1
1	practiceBlock	centre_mouse	20	38	reveal	Picture2.jpg	N_1.png	1	N_2.png	2	N_3.png	3	N_4.png	4	Y_1.png	1	Y_2.png	2	Y_3.png	3	Y_4.png	4	confidence.png	1	guessing.png	2	respond_yes.png	3	respond_no.png	4	Word 9 of 12	1	Image 3 of 3	1	reveal.png	5
1	practiceBlock	practice_present_trial	21	48	no_2	Picture2.jpg	N_1.png	1	N_2.png	2	N_3.png	3	N_4.png	4	Y_1.png	1	Y_2.png	2	Y_3.png	3	Y_4.png	4	confidence.png	1	guessing.png	2	respond_yes.png	3	respond_no.png	4	Word 10 of 12	1	Image 3 of 3	1	happy	5
1	practiceBlock	centre_mouse	22	54	reveal	Picture2.jpg	N_1.png	1	N_2.png	2	N_3.png	3	N_4.png	4	Y_1.png	1	Y_2.png	2	Y_3.png	3	Y_4.png	4	confidence.png	1	guessing.png	2	respond_yes.png	3	respond_no.png	4	Word 10 of 12	1	Image 3 of 3	1	reveal.png	5
1	practiceBlock	practice_present_trial	23	37	yes_2	Picture2.jpg	N_1.png	1	N_2.png	2	N_3.png	3	N_4.png	4	Y_1.png	1	Y_2.png	2	Y_3.png	3	Y_4.png	4	confidence.png	1	guessing.png	2	respond_yes.png	3	respond_no.png	4	Word 11 of 12	1	Image 3 of 3	1	smile	4
1	practiceBlock	centre_mouse	24	40	reveal	Picture2.jpg	N_1.png	1	N_2.png	2	N_3.png	3	N_4.png	4	Y_1.png	1	Y_2.png	2	Y_3.png	3	Y_4.png	4	confidence.png	1	guessing.png	2	respond_yes.png	3	respond_no.png	4	Word 11 of 12	1	Image 3 of 3	1	reveal.png	5
1	practiceBlock	practice_absent_trial	25	58	no_3	Picture2.jpg	N_1.png	1	N_2.png	2	N_3.png	3	N_4.png	4	Y_1.png	1	Y_2.png	2	Y_3.png	3	Y_4.png	4	confidence.png	1	guessing.png	2	respond_yes.png	3	respond_no.png	4	Word 12 of 12	1	Image 3 of 3	1	walk	1
1	practiceBlock	centre_mouse	26	48	reveal	Picture2.jpg	N_1.png	1	N_2.png	2	N_3.png	3	N_4.png	4	Y_1.png	1	Y_2.png	2	Y_3.png	3	Y_4.png	4	confidence.png	1	guessing.png	2	respond_yes.png	3	respond_no.png	4	Word 12 of 12	1	Image 3 of 3	1	reveal.png	5
1	practiceBlock	catch_trial	27	45	no_2	Picture2.jpg	N_1.png	1	N_2.png	2	N_3.png	3	N_4.png	4	Y_1.png	1	Y_2.png	2	Y_3.png	3	Y_4.png	4	confidence.png	1	guessing.png	2	respond_yes.png	3	respond_no.png	4	Word 12 of 12	1	Image 3 of 3	1	PRESS: Yes 4	4
1	practiceBlock	centre_mouse	28	40	reveal	Picture2.jpg	N_1.png	1	N_2.png	2	N_3.png	3	N_4.png	4	Y_1.png	1	Y_2.png	2	Y_3.png	3	Y_4.png	4	confidence.png	1	guessing.png	2	respond_yes.png	3	respond_no.png	4	Word 12 of 12	1	Image 3 of 3	1	reveal.png	5
1	practiceBlock	catch_trial	29	58	no_2	Picture2.jpg	N_1.png	1	N_2.png	2	N_3.png	3	N_4.png	4	Y_1.png	1	Y_2.png	2	Y_3.png	3	Y_4.png	4	confidence.png	1	guessing.png	2	respond_yes.png	3	respond_no.png	4	Word 12 of 12	1	Image 3 of 3	1	PRESS: No 1	5
1	practiceBlock	centre_mouse	30	52	reveal	Picture2.jpg	N_1.png	1	N_2.png	2	N_3.png	3	N_4.png	4	Y_1.png	1	Y_2.png	2	Y_3.png	3	Y_4.png	4	confidence.png	1	guessing.png	2	respond_yes.png	3	respond_no.png	4	Word 12 of 12	1	Image 3 of 3	1	reveal.png	5
1	reset	reset	1	200	0	Picture2.jpg	0	0	0	0	0	0	0	0	0	0	0	0	0	0	0	0	0	0	0	0	0	0	0	0	0	0	0	0	0	0
1	testBlock	test	1	1	0	im0000041.jpg	+	1	im0000056.jpg	3	mask1.jpg	1	mask1.jpg	1	mask2.jpg	2	mask2.jpg	2	mask5.jpg	5	0	0	0	0	0	0	0	0	0	0	0	0	0	0	0	0
1	testBlock	centre_mouse	2	49	reveal	im0000041.jpg	N_1.png	1	N_2.png	2	N_3.png	3	N_4.png	4	Y_1.png	1	Y_2.png	2	Y_3.png	3	Y_4.png	4	confidence.png	1	guessing.png	2	respond_yes.png	3	respond_no.png	4	Word 0 of 80	1	Image 1 of 5	1	reveal.png	5
1	testBlock	absent_trial	3	61	no_3	im0000056.jpg	N_1.png	1	N_2.png	2	N_3.png	3	N_4.png	4	Y_1.png	1	Y_2.png	2	Y_3.png	3	Y_4.png	4	confidence.png	1	guessing.png	2	respond_yes.png	3	respond_no.png	4	Word 1 of 80	1	Image 1 of 5	1	nice	8
1	testBlock	centre_mouse	4	30	reveal	im0000056.jpg	N_1.png	1	N_2.png	2	N_3.png	3	N_4.png	4	Y_1.png	1	Y_2.png	2	Y_3.png	3	Y_4.png	4	confidence.png	1	guessing.png	2	respond_yes.png	3	respond_no.png	4	Word 1 of 80	1	Image 1 of 5	1	reveal.png	5
1	testBlock	absent_trial	5	34	yes_2	im0000056.jpg	N_1.png	1	N_2.png	2	N_3.png	3	N_4.png	4	Y_1.png	1	Y_2.png	2	Y_3.png	3	Y_4.png	4	confidence.png	1	guessing.png	2	respond_yes.png	3	respond_no.png	4	Word 2 of 80	1	Image 1 of 5	1	brown	42
1	testBlock	centre_mouse	6	49	reveal	im0000056.jpg	N_1.png	1	N_2.png	2	N_3.png	3	N_4.png	4	Y_1.png	1	Y_2.png	2	Y_3.png	3	Y_4.png	4	confidence.png	1	guessing.png	2	respond_yes.png	3	respond_no.png	4	Word 2 of 80	1	Image 1 of 5	1	reveal.png	5
1	testBlock	absent_trial	7	46	yes_4	im0000056.jpg	N_1.png	1	N_2.png	2	N_3.png	3	N_4.png	4	Y_1.png	1	Y_2.png	2	Y_3.png	3	Y_4.png	4	confidence.png	1	guessing.png	2	respond_yes.png	3	respond_no.png	4	Word 3 of 80	1	Image 1 of 5	1	romantic	25
1	testBlock	centre_mouse	8	60	reveal	im0000056.jpg	N_1.png	1	N_2.png	2	N_3.png	3	N_4.png	4	Y_1.png	1	Y_2.png	2	Y_3.png	3	Y_4.png	4	confidence.png	1	guessing.png	2	respond_yes.png	3	respond_no.png	4	Word 3 of 80	1	Image 1 of 5	1	reveal.png	5
1	testBlock	absent_trial	9	37	no_4	im0000056.jpg	N_1.png	1	N_2.png	2	N_3.png	3	N_4.png	4	Y_1.png	1	Y_2.png	2	Y_3.png	3	Y_4.png	4	confidence.png	1	guessing.png	2	respond_yes.png	3	respond_no.png	4	Word 4 of 80	1	Image 1 of 5	1	orange	15
1	testBlock	centre_mouse	10	38	reveal	im0000056.jpg	N_1.png	1	N_2.png	2	N_3.png	3	N_4.png	4	Y_1.png	1	Y_2.png	2	Y_3.png	3	Y_4.png	4	confidence.png	1	guessing.png	2	respond_yes.png	3	respond_no.png	4	Word 4 of 80	1	Image 1 of 5	1	reveal.png	5
1	testBlock	present_trial	11	40	yes_4	im0000056.jpg	N_1.png	1	N_2.png	2	N_3.png	3	N_4.png	4	Y_1.png	1	Y_2.png	2	Y_3.png	3	Y_4.png	4	confidence.png	1	guessing.png	2	respond_yes.png	3	respond_no.png	4	Word 5 of 80	1	Image 1 of 5	1	high-view	32
1	testBlock	centre_mouse	12	51	reveal	im0000056.jpg	N_1.png	1	N_2.png	2	N_3.png	3	N_4.png	4	Y_1.png	1	Y_2.png	2	Y_3.png	3	Y_4.png	4	confidence.png	1	guessing.png	2	respond_yes.png	3	respond_no.png	4	Word 5 of 80	1	Image 1 of 5	1	reveal.png	5
1	testBlock	absent_trial	13	65	yes_2	im0000056.jpg	N_1.png	1	N_2.png	2	N_3.png	3	N_4.png	4	Y_1.png	1	Y_2.png	2	Y_3.png	3	Y_4.png	4	confidence.png	1	guessing.png	2	respond_yes.png	3	respond_no.png	4	Word 6 of 80	1	Image 1 of 5	1	girl	6
1	testBlock	centre_mouse	14	51	reveal	im0000056.jpg	N_1.png	1	N_2.png	2	N_3.png	3	N_4.png	4	Y_1.png	1	Y_2.png	2	Y_3.png	3	Y_4.png	4	confidence.png	1	guessing.png	2	respond_yes.png	3	respond_no.png	4	Word 6 of 80	1	Image 1 of 5	1	reveal.png	5
1	testBlock	absent_trial	15	41	no_4	im0000056.jpg	N_1.png	1	N_2.png	2	N_3.png	3	N_4.png	4	Y_1.png	1	Y_2.png	2	Y_3.png	3	Y_4.png	4	confidence.png	1	guessing.png	2	respond_yes.png	3	respond_no.png	4	Word 7 of 80	1	Image 1 of 5	1	resting-area	39
1	testBlock	centre_mouse	16	63	reveal	im0000056.jpg	N_1.png	1	N_2.png	2	N_3.png	3	N_4.png	4	Y_1.png	1	Y_2.png	2	Y_3.png	3	Y_4.png	4	confidence.png	1	guessing.png	2	respond_yes.png	3	respond_no.png	4	Word 7 of 80	1	Image 1 of 5	1	reveal.png	5
1	testBlock	present_trial	17	26	yes_4	im0000056.jpg	N_1.png	1	N_2.png	2	N_3.png	3	N_4.png	4	Y_1.png	1	Y_2.png	2	Y_3.png	3	Y_4.png	4	confidence.png	1	guessing.png	2	respond_yes.png	3	respond_no.png	4	Word 8 of 80	1	Image 1 of 5	1	nice	16
1	testBlock	centre_mouse	18	45	reveal	im0000056.jpg	N_1.png	1	N_2.png	2	N_3.png	3	N_4.png	4	Y_1.png	1	Y_2.png	2	Y_3.png	3	Y_4.png	4	confidence.png	1	guessing.png	2	respond_yes.png	3	respond_no.png	4	Word 8 of 80	1	Image 1 of 5	1	reveal.png	5
1	testBlock	absent_trial	19	26	no_4	im0000056.jpg	N_1.png	1	N_2.png	2	N_3.png	3	N_4.png	4	Y_1.png	1	Y_2.png	2	Y_3.png	3	Y_4.png	4	confidence.png	1	guessing.png	2	respond_yes.png	3	respond_no.png	4	Word 9 of 80	1	Image 1 of 5	1	camera	12
1	testBlock	centre_mouse	20	58	reveal	im0000056.jpg	N_1.png	1	N_2.png	2	N_3.png	3	N_4.png	4	Y_1.png	1	Y_2.png	2	Y_3.png	3	Y_4.png	4	confidence.png	1	guessing.png	2	respond_yes.png	3	respond_no.png	4	Word 9 of 80	1	Image 1 of 5	1	reveal.png	5
1	testBlock	present_trial	21	35	yes_3	im0000056.jpg	N_1.png	1	N_2.png	2	N_3.png	3	N_4.png	4	Y_1.png	1	Y_2.png	2	Y_3.png	3	Y_4.png	4	confidence.png	1	guessing.png	2	respond_yes.png	3	respond_no.png	4	Word 10 of 80	1	Image 1 of 5	1	tree	8
1	testBlock	centre_mouse	22	80	reveal	im0000056.jpg	N_1.png	1	N_2.png	2	N_3.png	3	N_4.png	4	Y_1.png	1	Y_2.png	2	Y_3.png	3	Y_4.png	4	confidence.png	1	guessing.png	2	respond_yes.png	3	respond_no.png	4	Word 10 of 80	1	Image 1 of 5	1	reveal.png	5
1	testBlock	present_trial	23	52	yes_3	im0000056.jpg	N_1.png	1	N_2.png	2	N_3.png	3	N_4.png	4	Y_1.png	1	Y_2.png	2	Y_3.png	3	Y_4.png	4	confidence.png	1	guessing.png	2	respond_yes.png	3	respond_no.png	4	Word 11 of 80	1	Image 1 of 5	1	street	40
1	testBlock	centre_mouse	24	54	reveal	im0000056.jpg	N_1.png	1	N_2.png	2	N_3.png	3	N_4.png	4	Y_1.png	1	Y_2.png	2	Y_3.png	3	Y_4.png	4	confidence.png	1	guessing.png	2	respond_yes.png	3	respond_no.png	4	Word 11 of 80	1	Image 1 of 5	1	reveal.png	5
1	testBlock	present_trial	25	19	yes_1	im0000056.jpg	N_1.png	1	N_2.png	2	N_3.png	3	N_4.png	4	Y_1.png	1	Y_2.png	2	Y_3.png	3	Y_4.png	4	confidence.png	1	guessing.png	2	respond_yes.png	3	respond_no.png	4	Word 12 of 80	1	Image 1 of 5	1	body-of-water	28
1	testBlock	centre_mouse	26	64	reveal	im0000056.jpg	N_1.png	1	N_2.png	2	N_3.png	3	N_4.png	4	Y_1.png	1	Y_2.png	2	Y_3.png	3	Y_4.png	4	confidence.png	1	guessing.png	2	respond_yes.png	3	respond_no.png	4	Word 12 of 80	1	Image 1 of 5	1	reveal.png	5
1	testBlock	absent_trial	27	39	yes_1	im0000056.jpg	N_1.png	1	N_2.png	2	N_3.png	3	N_4.png	4	Y_1.png	1	Y_2.png	2	Y_3.png	3	Y_4.png	4	confidence.png	1	guessing.png	2	respond_yes.png	3	respond_no.png	4	Word 13 of 80	1	Image 1 of 5	1	table	2
1	testBlock	centre_mouse	28	52	reveal	im0000056.jpg	N_1.png	1	N_2.png	2	N_3.png	3	N_4.png	4	Y_1.png	1	Y_2.png	2	Y_3.png	3	Y_4.png	4	confidence.png	1	guessing.png	2	respond_yes.png	3	respond_no.png	4	Word 13 of 80	1	Image 1 of 5	1	reveal.png	5
1	testBlock	present_trial	29	19	yes_4	im0000056.jpg	N_1.png	1	N_2.png	2	N_3.png	3	N_4.png	4	Y_1.png	1	Y_2.png	2	Y_3.png	3	Y_4.png	4	confidence.png	1	guessing.png	2	respond_yes.png	3	respond_no.png	4	Word 14 of 80	1	Image 1 of 5	1	walk	22
1	testBlock	centre_mouse	30	42	reveal	im0000056.jpg	N_1.png	1	N_2.png	2	N_3.png	3	N_4.png	4	Y_1.png	1	Y_2.png	2	Y_3.png	3	Y_4.png	4	confidence.png	1	guessing.png	2	respond_yes.png	3	respond_no.png	4	Word 14 of 80	1	Image 1 of 5	1	reveal.png	5
1	testBlock	present_trial	31	53	yes_4	im0000056.jpg	N_1.png	1	N_2.png	2	N_3.png	3	N_4.png	4	Y_1.png	1	Y_2.png	2	Y_3.png	3	Y_4.png	4	confidence.png	1	guessing.png	2	respond_yes.png	3	respond_no.png	4	Word 15 of 80	1	Image 1 of 5	1	river	12
1	testBlock	centre_mouse	32	51	reveal	im0000056.jpg	N_1.png	1	N_2.png	2	N_3.png	3	N_4.png	4	Y_1.png	1	Y_2.png	2	Y_3.png	3	Y_4.png	4	confidence.png	1	guessing.png	2	respond_yes.png	3	respond_no.png	4	Word 15 of 80	1	Image 1 of 5	1	reveal.png	5
1	testBlock	absent_trial	33	32	yes_3	im0000056.jpg	N_1.png	1	N_2.png	2	N_3.png	3	N_4.png	4	Y_1.png	1	Y_2.png	2	Y_3.png	3	Y_4.png	4	confidence.png	1	guessing.png	2	respond_yes.png	3	respond_no.png	4	Word 16 of 80	1	Image 1 of 5	1	morbid	24
1	testBlock	centre_mouse	34	55	reveal	im0000056.jpg	N_1.png	1	N_2.png	2	N_3.png	3	N_4.png	4	Y_1.png	1	Y_2.png	2	Y_3.png	3	Y_4.png	4	confidence.png	1	guessing.png	2	respond_yes.png	3	respond_no.png	4	Word 16 of 80	1	Image 1 of 5	1	reveal.png	5
1	testBlock	present_trial	35	40	yes_3	im0000056.jpg	N_1.png	1	N_2.png	2	N_3.png	3	N_4.png	4	Y_1.png	1	Y_2.png	2	Y_3.png	3	Y_4.png	4	confidence.png	1	guessing.png	2	respond_yes.png	3	respond_no.png	4	Word 17 of 80	1	Image 1 of 5	1	lake	27
1	testBlock	centre_mouse	36	38	reveal	im0000056.jpg	N_1.png	1	N_2.png	2	N_3.png	3	N_4.png	4	Y_1.png	1	Y_2.png	2	Y_3.png	3	Y_4.png	4	confidence.png	1	guessing.png	2	respond_yes.png	3	respond_no.png	4	Word 17 of 80	1	Image 1 of 5	1	reveal.png	5
1	testBlock	absent_trial	37	45	yes_3	im0000056.jpg	N_1.png	1	N_2.png	2	N_3.png	3	N_4.png	4	Y_1.png	1	Y_2.png	2	Y_3.png	3	Y_4.png	4	confidence.png	1	guessing.png	2	respond_yes.png	3	respond_no.png	4	Word 18 of 80	1	Image 1 of 5	1	air	47
1	testBlock	centre_mouse	38	36	reveal	im0000056.jpg	N_1.png	1	N_2.png	2	N_3.png	3	N_4.png	4	Y_1.png	1	Y_2.png	2	Y_3.png	3	Y_4.png	4	confidence.png	1	guessing.png	2	respond_yes.png	3	respond_no.png	4	Word 18 of 80	1	Image 1 of 5	1	reveal.png	5
1	testBlock	present_trial	39	37	yes_4	im0000056.jpg	N_1.png	1	N_2.png	2	N_3.png	3	N_4.png	4	Y_1.png	1	Y_2.png	2	Y_3.png	3	Y_4.png	4	confidence.png	1	guessing.png	2	respond_yes.png	3	respond_no.png	4	Word 19 of 80	1	Image 1 of 5	1	park	17
1	testBlock	centre_mouse	40	53	reveal	im0000056.jpg	N_1.png	1	N_2.png	2	N_3.png	3	N_4.png	4	Y_1.png	1	Y_2.png	2	Y_3.png	3	Y_4.png	4	confidence.png	1	guessing.png	2	respond_yes.png	3	respond_no.png	4	Word 19 of 80	1	Image 1 of 5	1	reveal.png	5
1	testBlock	present_trial	41	36	yes_2	im0000056.jpg	N_1.png	1	N_2.png	2	N_3.png	3	N_4.png	4	Y_1.png	1	Y_2.png	2	Y_3.png	3	Y_4.png	4	confidence.png	1	guessing.png	2	respond_yes.png	3	respond_no.png	4	Word 20 of 80	1	Image 1 of 5	1	sky	7
1	testBlock	centre_mouse	42	49	reveal	im0000056.jpg	N_1.png	1	N_2.png	2	N_3.png	3	N_4.png	4	Y_1.png	1	Y_2.png	2	Y_3.png	3	Y_4.png	4	confidence.png	1	guessing.png	2	respond_yes.png	3	respond_no.png	4	Word 20 of 80	1	Image 1 of 5	1	reveal.png	5
1	testBlock	catch_trial	43	54	yes_4	im0000056.jpg	N_1.png	1	N_2.png	2	N_3.png	3	N_4.png	4	Y_1.png	1	Y_2.png	2	Y_3.png	3	Y_4.png	4	confidence.png	1	guessing.png	2	respond_yes.png	3	respond_no.png	4	Word 20 of 80	1	Image 1 of 5	1	PRESS: No 2	6
1	testBlock	centre_mouse	44	39	reveal	im0000056.jpg	N_1.png	1	N_2.png	2	N_3.png	3	N_4.png	4	Y_1.png	1	Y_2.png	2	Y_3.png	3	Y_4.png	4	confidence.png	1	guessing.png	2	respond_yes.png	3	respond_no.png	4	Word 20 of 80	1	Image 1 of 5	1	reveal.png	5
1	testBlock	present_trial	45	58	yes_3	im0000056.jpg	N_1.png	1	N_2.png	2	N_3.png	3	N_4.png	4	Y_1.png	1	Y_2.png	2	Y_3.png	3	Y_4.png	4	confidence.png	1	guessing.png	2	respond_yes.png	3	respond_no.png	4	Word 21 of 80	1	Image 1 of 5	1	city	2
1	testBlock	centre_mouse	46	49	reveal	im0000056.jpg	N_1.png	1	N_2.png	2	N_3.png	3	N_4.png	4	Y_1.png	1	Y_2.png	2	Y_3.png	3	Y_4.png	4	confidence.png	1	guessing.png	2	respond_yes.png	3	respond_no.png	4	Word 21 of 80	1	Image 1 of 5	1	reveal.png	5
1	testBlock	absent_trial	47	26	yes_3	im0000056.jpg	N_1.png	1	N_2.png	2	N_3.png	3	N_4.png	4	Y_1.png	1	Y_2.png	2	Y_3.png	3	Y_4.png	4	confidence.png	1	guessing.png	2	respond_yes.png	3	respond_no.png	4	Word 22 of 80	1	Image 1 of 5	1	hill	35
1	testBlock	centre_mouse	48	42	reveal	im0000056.jpg	N_1.png	1	N_2.png	2	N_3.png	3	N_4.png	4	Y_1.png	1	Y_2.png	2	Y_3.png	3	Y_4.png	4	confidence.png	1	guessing.png	2	respond_yes.png	3	respond_no.png	4	Word 22 of 80	1	Image 1 of 5	1	reveal.png	5
1	testBlock	present_trial	49	54	no_4	im0000056.jpg	N_1.png	1	N_2.png	2	N_3.png	3	N_4.png	4	Y_1.png	1	Y_2.png	2	Y_3.png	3	Y_4.png	4	confidence.png	1	guessing.png	2	respond_yes.png	3	respond_no.png	4	Word 23 of 80	1	Image 1 of 5	1	usa	25
1	testBlock	centre_mouse	50	55	reveal	im0000056.jpg	N_1.png	1	N_2.png	2	N_3.png	3	N_4.png	4	Y_1.png	1	Y_2.png	2	Y_3.png	3	Y_4.png	4	confidence.png	1	guessing.png	2	respond_yes.png	3	respond_no.png	4	Word 23 of 80	1	Image 1 of 5	1	reveal.png	5
1	testBlock	present_trial	51	29	yes_3	im0000056.jpg	N_1.png	1	N_2.png	2	N_3.png	3	N_4.png	4	Y_1.png	1	Y_2.png	2	Y_3.png	3	Y_4.png	4	confidence.png	1	guessing.png	2	respond_yes.png	3	respond_no.png	4	Word 24 of 80	1	Image 1 of 5	1	water	3
1	testBlock	centre_mouse	52	50	reveal	im0000056.jpg	N_1.png	1	N_2.png	2	N_3.png	3	N_4.png	4	Y_1.png	1	Y_2.png	2	Y_3.png	3	Y_4.png	4	confidence.png	1	guessing.png	2	respond_yes.png	3	respond_no.png	4	Word 24 of 80	1	Image 1 of 5	1	reveal.png	5
1	testBlock	absent_trial	53	42	no_3	im0000056.jpg	N_1.png	1	N_2.png	2	N_3.png	3	N_4.png	4	Y_1.png	1	Y_2.png	2	Y_3.png	3	Y_4.png	4	confidence.png	1	guessing.png	2	respond_yes.png	3	respond_no.png	4	Word 25 of 80	1	Image 1 of 5	1	tree	45
1	testBlock	centre_mouse	54	55	reveal	im0000056.jpg	N_1.png	1	N_2.png	2	N_3.png	3	N_4.png	4	Y_1.png	1	Y_2.png	2	Y_3.png	3	Y_4.png	4	confidence.png	1	guessing.png	2	respond_yes.png	3	respond_no.png	4	Word 25 of 80	1	Image 1 of 5	1	reveal.png	5
1	testBlock	absent_trial	55	36	no_4	im0000056.jpg	N_1.png	1	N_2.png	2	N_3.png	3	N_4.png	4	Y_1.png	1	Y_2.png	2	Y_3.png	3	Y_4.png	4	confidence.png	1	guessing.png	2	respond_yes.png	3	respond_no.png	4	Word 26 of 80	1	Image 1 of 5	1	desk-top	40
1	testBlock	centre_mouse	56	35	reveal	im0000056.jpg	N_1.png	1	N_2.png	2	N_3.png	3	N_4.png	4	Y_1.png	1	Y_2.png	2	Y_3.png	3	Y_4.png	4	confidence.png	1	guessing.png	2	respond_yes.png	3	respond_no.png	4	Word 26 of 80	1	Image 1 of 5	1	reveal.png	5
1	testBlock	present_trial	57	45	yes_4	im0000056.jpg	N_1.png	1	N_2.png	2	N_3.png	3	N_4.png	4	Y_1.png	1	Y_2.png	2	Y_3.png	3	Y_4.png	4	confidence.png	1	guessing.png	2	respond_yes.png	3	respond_no.png	4	Word 27 of 80	1	Image 1 of 5	1	terrace	49
1	testBlock	centre_mouse	58	45	reveal	im0000056.jpg	N_1.png	1	N_2.png	2	N_3.png	3	N_4.png	4	Y_1.png	1	Y_2.png	2	Y_3.png	3	Y_4.png	4	confidence.png	1	guessing.png	2	respond_yes.png	3	respond_no.png	4	Word 27 of 80	1	Image 1 of 5	1	reveal.png	5
1	testBlock	absent_trial	59	27	no_3	im0000056.jpg	N_1.png	1	N_2.png	2	N_3.png	3	N_4.png	4	Y_1.png	1	Y_2.png	2	Y_3.png	3	Y_4.png	4	confidence.png	1	guessing.png	2	respond_yes.png	3	respond_no.png	4	Word 28 of 80	1	Image 1 of 5	1	tense	19
1	testBlock	centre_mouse	60	36	reveal	im0000056.jpg	N_1.png	1	N_2.png	2	N_3.png	3	N_4.png	4	Y_1.png	1	Y_2.png	2	Y_3.png	3	Y_4.png	4	confidence.png	1	guessing.png	2	respond_yes.png	3	respond_no.png	4	Word 28 of 80	1	Image 1 of 5	1	reveal.png	5
1	testBlock	absent_trial	61	36	no_3	im0000056.jpg	N_1.png	1	N_2.png	2	N_3.png	3	N_4.png	4	Y_1.png	1	Y_2.png	2	Y_3.png	3	Y_4.png	4	confidence.png	1	guessing.png	2	respond_yes.png	3	respond_no.png	4	Word 29 of 80	1	Image 1 of 5	1	talk	10
1	testBlock	centre_mouse	62	39	reveal	im0000056.jpg	N_1.png	1	N_2.png	2	N_3.png	3	N_4.png	4	Y_1.png	1	Y_2.png	2	Y_3.png	3	Y_4.png	4	confidence.png	1	guessing.png	2	respond_yes.png	3	respond_no.png	4	Word 29 of 80	1	Image 1 of 5	1	reveal.png	5
1	testBlock	present_trial	63	44	yes_3	im0000056.jpg	N_1.png	1	N_2.png	2	N_3.png	3	N_4.png	4	Y_1.png	1	Y_2.png	2	Y_3.png	3	Y_4.png	4	confidence.png	1	guessing.png	2	respond_yes.png	3	respond_no.png	4	Word 30 of 80	1	Image 1 of 5	1	area	41
1	testBlock	centre_mouse	64	57	reveal	im0000056.jpg	N_1.png	1	N_2.png	2	N_3.png	3	N_4.png	4	Y_1.png	1	Y_2.png	2	Y_3.png	3	Y_4.png	4	confidence.png	1	guessing.png	2	respond_yes.png	3	respond_no.png	4	Word 30 of 80	1	Image 1 of 5	1	reveal.png	5
1	testBlock	present_trial	65	46	yes_1	im0000056.jpg	N_1.png	1	N_2.png	2	N_3.png	3	N_4.png	4	Y_1.png	1	Y_2.png	2	Y_3.png	3	Y_4.png	4	confidence.png	1	guessing.png	2	respond_yes.png	3	respond_no.png	4	Word 31 of 80	1	Image 1 of 5	1	amaze	30
1	testBlock	centre_mouse	66	52	reveal	im0000056.jpg	N_1.png	1	N_2.png	2	N_3.png	3	N_4.png	4	Y_1.png	1	Y_2.png	2	Y_3.png	3	Y_4.png	4	confidence.png	1	guessing.png	2	respond_yes.png	3	respond_no.png	4	Word 31 of 80	1	Image 1 of 5	1	reveal.png	5
1	testBlock	absent_trial	67	54	no_4	im0000056.jpg	N_1.png	1	N_2.png	2	N_3.png	3	N_4.png	4	Y_1.png	1	Y_2.png	2	Y_3.png	3	Y_4.png	4	confidence.png	1	guessing.png	2	respond_yes.png	3	respond_no.png	4	Word 32 of 80	1	Image 1 of 5	1	fish	5
1	testBlock	centre_mouse	68	37	reveal	im0000056.jpg	N_1.png	1	N_2.png	2	N_3.png	3	N_4.png	4	Y_1.png	1	Y_2.png	2	Y_3.png	3	Y_4.png	4	confidence.png	1	guessing.png	2	respond_yes.png	3	respond_no.png	4	Word 32 of 80	1	Image 1 of 5	1	reveal.png	5
1	testBlock	present_trial	69	44	yes_3	im0000056.jpg	N_1.png	1	N_2.png	2	N_3.png	3	N_4.png	4	Y_1.png	1	Y_2.png	2	Y_3.png	3	Y_4.png	4	confidence.png	1	guessing.png	2	respond_yes.png	3	respond_no.png	4	Word 33 of 80	1	Image 1 of 5	1	sky-view	48
1	testBlock	centre_mouse	70	31	reveal	im0000056.jpg	N_1.png	1	N_2.png	2	N_3.png	3	N_4.png	4	Y_1.png	1	Y_2.png	2	Y_3.png	3	Y_4.png	4	confidence.png	1	guessing.png	2	respond_yes.png	3	respond_no.png	4	Word 33 of 80	1	Image 1 of 5	1	reveal.png	5
1	testBlock	absent_trial	71	41	no_3	im0000056.jpg	N_1.png	1	N_2.png	2	N_3.png	3	N_4.png	4	Y_1.png	1	Y_2.png	2	Y_3.png	3	Y_4.png	4	confidence.png	1	guessing.png	2	respond_yes.png	3	respond_no.png	4	Word 34 of 80	1	Image 1 of 5	1	waste	1
1	testBlock	centre_mouse	72	62	reveal	im0000056.jpg	N_1.png	1	N_2.png	2	N_3.png	3	N_4.png	4	Y_1.png	1	Y_2.png	2	Y_3.png	3	Y_4.png	4	confidence.png	1	guessing.png	2	respond_yes.png	3	respond_no.png	4	Word 34 of 80	1	Image 1 of 5	1	reveal.png	5
1	testBlock	present_trial	73	39	no_2	im0000056.jpg	N_1.png	1	N_2.png	2	N_3.png	3	N_4.png	4	Y_1.png	1	Y_2.png	2	Y_3.png	3	Y_4.png	4	confidence.png	1	guessing.png	2	respond_yes.png	3	respond_no.png	4	Word 35 of 80	1	Image 1 of 5	1	many-people	33
1	testBlock	centre_mouse	74	40	reveal	im0000056.jpg	N_1.png	1	N_2.png	2	N_3.png	3	N_4.png	4	Y_1.png	1	Y_2.png	2	Y_3.png	3	Y_4.png	4	confidence.png	1	guessing.png	2	respond_yes.png	3	respond_no.png	4	Word 35 of 80	1	Image 1 of 5	1	reveal.png	5
1	testBlock	absent_trial	75	48	yes_3	im0000056.jpg	N_1.png	1	N_2.png	2	N_3.png	3	N_4.png	4	Y_1.png	1	Y_2.png	2	Y_3.png	3	Y_4.png	4	confidence.png	1	guessing.png	2	respond_yes.png	3	respond_no.png	4	Word 36 of 80	1	Image 1 of 5	1	bay	3
1	testBlock	centre_mouse	76	46	reveal	im0000056.jpg	N_1.png	1	N_2.png	2	N_3.png	3	N_4.png	4	Y_1.png	1	Y_2.png	2	Y_3.png	3	Y_4.png	4	confidence.png	1	guessing.png	2	respond_yes.png	3	respond_no.png	4	Word 36 of 80	1	Image 1 of 5	1	reveal.png	5
1	testBlock	present_trial	77	44	yes_1	im0000056.jpg	N_1.png	1	N_2.png	2	N_3.png	3	N_4.png	4	Y_1.png	1	Y_2.png	2	Y_3.png	3	Y_4.png	4	confidence.png	1	guessing.png	2	respond_yes.png	3	respond_no.png	4	Word 37 of 80	1	Image 1 of 5	1	flat	14
1	testBlock	centre_mouse	78	32	reveal	im0000056.jpg	N_1.png	1	N_2.png	2	N_3.png	3	N_4.png	4	Y_1.png	1	Y_2.png	2	Y_3.png	3	Y_4.png	4	confidence.png	1	guessing.png	2	respond_yes.png	3	respond_no.png	4	Word 37 of 80	1	Image 1 of 5	1	reveal.png	5
1	testBlock	present_trial	79	51	yes_4	im0000056.jpg	N_1.png	1	N_2.png	2	N_3.png	3	N_4.png	4	Y_1.png	1	Y_2.png	2	Y_3.png	3	Y_4.png	4	confidence.png	1	guessing.png	2	respond_yes.png	3	respond_no.png	4	Word 38 of 80	1	Image 1 of 5	1	new-york	43
1	testBlock	centre_mouse	80	35	reveal	im0000056.jpg	N_1.png	1	N_2.png	2	N_3.png	3	N_4.png	4	Y_1.png	1	Y_2.png	2	Y_3.png	3	Y_4.png	4	confidence.png	1	guessing.png	2	respond_yes.png	3	respond_no.png	4	Word 38 of 80	1	Image 1 of 5	1	reveal.png	5
1	testBlock	present_trial	81	41	yes_4	im0000056.jpg	N_1.png	1	N_2.png	2	N_3.png	3	N_4.png	4	Y_1.png	1	Y_2.png	2	Y_3.png	3	Y_4.png	4	confidence.png	1	guessing.png	2	respond_yes.png	3	respond_no.png	4	Word 39 of 80	1	Image 1 of 5	1	sand	50
1	testBlock	centre_mouse	82	27	reveal	im0000056.jpg	N_1.png	1	N_2.png	2	N_3.png	3	N_4.png	4	Y_1.png	1	Y_2.png	2	Y_3.png	3	Y_4.png	4	confidence.png	1	guessing.png	2	respond_yes.png	3	respond_no.png	4	Word 39 of 80	1	Image 1 of 5	1	reveal.png	5
1	testBlock	absent_trial	83	40	yes_3	im0000056.jpg	N_1.png	1	N_2.png	2	N_3.png	3	N_4.png	4	Y_1.png	1	Y_2.png	2	Y_3.png	3	Y_4.png	4	confidence.png	1	guessing.png	2	respond_yes.png	3	respond_no.png	4	Word 40 of 80	1	Image 1 of 5	1	wet	23
1	testBlock	centre_mouse	84	48	reveal	im0000056.jpg	N_1.png	1	N_2.png	2	N_3.png	3	N_4.png	4	Y_1.png	1	Y_2.png	2	Y_3.png	3	Y_4.png	4	confidence.png	1	guessing.png	2	respond_yes.png	3	respond_no.png	4	Word 40 of 80	1	Image 1 of 5	1	reveal.png	5
1	testBlock	absent_trial	85	42	no_4	im0000056.jpg	N_1.png	1	N_2.png	2	N_3.png	3	N_4.png	4	Y_1.png	1	Y_2.png	2	Y_3.png	3	Y_4.png	4	confidence.png	1	guessing.png	2	respond_yes.png	3	respond_no.png	4	Word 41 of 80	1	Image 1 of 5	1	sun	33
1	testBlock	centre_mouse	86	59	reveal	im0000056.jpg	N_1.png	1	N_2.png	2	N_3.png	3	N_4.png	4	Y_1.png	1	Y_2.png	2	Y_3.png	3	Y_4.png	4	confidence.png	1	guessing.png	2	respond_yes.png	3	respond_no.png	4	Word 41 of 80	1	Image 1 of 5	1	reveal.png	5
1	testBlock	present_trial	87	44	yes_3	im0000056.jpg	N_1.png	1	N_2.png	2	N_3.png	3	N_4.png	4	Y_1.png	1	Y_2.png	2	Y_3.png	3	Y_4.png	4	confidence.png	1	guessing.png	2	respond_yes.png	3	respond_no.png	4	Word 42 of 80	1	Image 1 of 5	1	us	34
1	testBlock	centre_mouse	88	92	reveal	im0000056.jpg	N_1.png	1	N_2.png	2	N_3.png	3	N_4.png	4	Y_1.png	1	Y_2.png	2	Y_3.png	3	Y_4.png	4	confidence.png	1	guessing.png	2	respond_yes.png	3	respond_no.png	4	Word 42 of 80	1	Image 1 of 5	1	reveal.png	5
1	testBlock	present_trial	89	57	yes_4	im0000056.jpg	N_1.png	1	N_2.png	2	N_3.png	3	N_4.png	4	Y_1.png	1	Y_2.png	2	Y_3.png	3	Y_4.png	4	confidence.png	1	guessing.png	2	respond_yes.png	3	respond_no.png	4	Word 43 of 80	1	Image 1 of 5	1	light	42
1	testBlock	centre_mouse	90	41	reveal	im0000056.jpg	N_1.png	1	N_2.png	2	N_3.png	3	N_4.png	4	Y_1.png	1	Y_2.png	2	Y_3.png	3	Y_4.png	4	confidence.png	1	guessing.png	2	respond_yes.png	3	respond_no.png	4	Word 43 of 80	1	Image 1 of 5	1	reveal.png	5
1	testBlock	absent_trial	91	46	no_3	im0000056.jpg	N_1.png	1	N_2.png	2	N_3.png	3	N_4.png	4	Y_1.png	1	Y_2.png	2	Y_3.png	3	Y_4.png	4	confidence.png	1	guessing.png	2	respond_yes.png	3	respond_no.png	4	Word 44 of 80	1	Image 1 of 5	1	day-time	32
1	testBlock	centre_mouse	92	39	reveal	im0000056.jpg	N_1.png	1	N_2.png	2	N_3.png	3	N_4.png	4	Y_1.png	1	Y_2.png	2	Y_3.png	3	Y_4.png	4	confidence.png	1	guessing.png	2	respond_yes.png	3	respond_no.png	4	Word 44 of 80	1	Image 1 of 5	1	reveal.png	5
1	testBlock	absent_trial	93	33	no_4	im0000056.jpg	N_1.png	1	N_2.png	2	N_3.png	3	N_4.png	4	Y_1.png	1	Y_2.png	2	Y_3.png	3	Y_4.png	4	confidence.png	1	guessing.png	2	respond_yes.png	3	respond_no.png	4	Word 45 of 80	1	Image 1 of 5	1	sidewall	31
1	testBlock	centre_mouse	94	55	reveal	im0000056.jpg	N_1.png	1	N_2.png	2	N_3.png	3	N_4.png	4	Y_1.png	1	Y_2.png	2	Y_3.png	3	Y_4.png	4	confidence.png	1	guessing.png	2	respond_yes.png	3	respond_no.png	4	Word 45 of 80	1	Image 1 of 5	1	reveal.png	5
1	testBlock	absent_trial	95	41	no_4	im0000056.jpg	N_1.png	1	N_2.png	2	N_3.png	3	N_4.png	4	Y_1.png	1	Y_2.png	2	Y_3.png	3	Y_4.png	4	confidence.png	1	guessing.png	2	respond_yes.png	3	respond_no.png	4	Word 46 of 80	1	Image 1 of 5	1	political	38
1	testBlock	centre_mouse	96	24	reveal	im0000056.jpg	N_1.png	1	N_2.png	2	N_3.png	3	N_4.png	4	Y_1.png	1	Y_2.png	2	Y_3.png	3	Y_4.png	4	confidence.png	1	guessing.png	2	respond_yes.png	3	respond_no.png	4	Word 46 of 80	1	Image 1 of 5	1	reveal.png	5
1	testBlock	absent_trial	97	37	no_4	im0000056.jpg	N_1.png	1	N_2.png	2	N_3.png	3	N_4.png	4	Y_1.png	1	Y_2.png	2	Y_3.png	3	Y_4.png	4	confidence.png	1	guessing.png	2	respond_yes.png	3	respond_no.png	4	Word 47 of 80	1	Image 1 of 5	1	blow	37
1	testBlock	centre_mouse	98	36	reveal	im0000056.jpg	N_1.png	1	N_2.png	2	N_3.png	3	N_4.png	4	Y_1.png	1	Y_2.png	2	Y_3.png	3	Y_4.png	4	confidence.png	1	guessing.png	2	respond_yes.png	3	respond_no.png	4	Word 47 of 80	1	Image 1 of 5	1	reveal.png	5
1	testBlock	present_trial	99	53	yes_1	im0000056.jpg	N_1.png	1	N_2.png	2	N_3.png	3	N_4.png	4	Y_1.png	1	Y_2.png	2	Y_3.png	3	Y_4.png	4	confidence.png	1	guessing.png	2	respond_yes.png	3	respond_no.png	4	Word 48 of 80	1	Image 1 of 5	1	tower	44
1	testBlock	centre_mouse	100	57	reveal	im0000056.jpg	N_1.png	1	N_2.png	2	N_3.png	3	N_4.png	4	Y_1.png	1	Y_2.png	2	Y_3.png	3	Y_4.png	4	confidence.png	1	guessing.png	2	respond_yes.png	3	respond_no.png	4	Word 48 of 80	1	Image 1 of 5	1	reveal.png	5
1	testBlock	absent_trial	101	44	no_4	im0000056.jpg	N_1.png	1	N_2.png	2	N_3.png	3	N_4.png	4	Y_1.png	1	Y_2.png	2	Y_3.png	3	Y_4.png	4	confidence.png	1	guessing.png	2	respond_yes.png	3	respond_no.png	4	Word 49 of 80	1	Image 1 of 5	1	eat	30
1	testBlock	centre_mouse	102	42	reveal	im0000056.jpg	N_1.png	1	N_2.png	2	N_3.png	3	N_4.png	4	Y_1.png	1	Y_2.png	2	Y_3.png	3	Y_4.png	4	confidence.png	1	guessing.png	2	respond_yes.png	3	respond_no.png	4	Word 49 of 80	1	Image 1 of 5	1	reveal.png	5
1	testBlock	present_trial	103	34	yes_2	im0000056.jpg	N_1.png	1	N_2.png	2	N_3.png	3	N_4.png	4	Y_1.png	1	Y_2.png	2	Y_3.png	3	Y_4.png	4	confidence.png	1	guessing.png	2	respond_yes.png	3	respond_no.png	4	Word 50 of 80	1	Image 1 of 5	1	revar	39
1	testBlock	centre_mouse	104	37	reveal	im0000056.jpg	N_1.png	1	N_2.png	2	N_3.png	3	N_4.png	4	Y_1.png	1	Y_2.png	2	Y_3.png	3	Y_4.png	4	confidence.png	1	guessing.png	2	respond_yes.png	3	respond_no.png	4	Word 50 of 80	1	Image 1 of 5	1	reveal.png	5
1	testBlock	catch_trial	105	45	yes_2	im0000056.jpg	N_1.png	1	N_2.png	2	N_3.png	3	N_4.png	4	Y_1.png	1	Y_2.png	2	Y_3.png	3	Y_4.png	4	confidence.png	1	guessing.png	2	respond_yes.png	3	respond_no.png	4	Word 50 of 80	1	Image 1 of 5	1	PRESS: No 4	8
1	testBlock	centre_mouse	106	43	reveal	im0000056.jpg	N_1.png	1	N_2.png	2	N_3.png	3	N_4.png	4	Y_1.png	1	Y_2.png	2	Y_3.png	3	Y_4.png	4	confidence.png	1	guessing.png	2	respond_yes.png	3	respond_no.png	4	Word 50 of 80	1	Image 1 of 5	1	reveal.png	5
1	testBlock	present_trial	107	35	yes_3	im0000056.jpg	N_1.png	1	N_2.png	2	N_3.png	3	N_4.png	4	Y_1.png	1	Y_2.png	2	Y_3.png	3	Y_4.png	4	confidence.png	1	guessing.png	2	respond_yes.png	3	respond_no.png	4	Word 51 of 80	1	Image 1 of 5	1	person	47
1	testBlock	centre_mouse	108	63	reveal	im0000056.jpg	N_1.png	1	N_2.png	2	N_3.png	3	N_4.png	4	Y_1.png	1	Y_2.png	2	Y_3.png	3	Y_4.png	4	confidence.png	1	guessing.png	2	respond_yes.png	3	respond_no.png	4	Word 51 of 80	1	Image 1 of 5	1	reveal.png	5
1	testBlock	absent_trial	109	36	no_3	im0000056.jpg	N_1.png	1	N_2.png	2	N_3.png	3	N_4.png	4	Y_1.png	1	Y_2.png	2	Y_3.png	3	Y_4.png	4	confidence.png	1	guessing.png	2	respond_yes.png	3	respond_no.png	4	Word 52 of 80	1	Image 1 of 5	1	sky	46
1	testBlock	centre_mouse	110	38	reveal	im0000056.jpg	N_1.png	1	N_2.png	2	N_3.png	3	N_4.png	4	Y_1.png	1	Y_2.png	2	Y_3.png	3	Y_4.png	4	confidence.png	1	guessing.png	2	respond_yes.png	3	respond_no.png	4	Word 52 of 80	1	Image 1 of 5	1	reveal.png	5
1	testBlock	absent_trial	111	31	no_2	im0000056.jpg	N_1.png	1	N_2.png	2	N_3.png	3	N_4.png	4	Y_1.png	1	Y_2.png	2	Y_3.png	3	Y_4.png	4	confidence.png	1	guessing.png	2	respond_yes.png	3	respond_no.png	4	Word 53 of 80	1	Image 1 of 5	1	grey-truck	34
1	testBlock	centre_mouse	112	39	reveal	im0000056.jpg	N_1.png	1	N_2.png	2	N_3.png	3	N_4.png	4	Y_1.png	1	Y_2.png	2	Y_3.png	3	Y_4.png	4	confidence.png	1	guessing.png	2	respond_yes.png	3	respond_no.png	4	Word 53 of 80	1	Image 1 of 5	1	reveal.png	5
1	testBlock	absent_trial	113	54	no_3	im0000056.jpg	N_1.png	1	N_2.png	2	N_3.png	3	N_4.png	4	Y_1.png	1	Y_2.png	2	Y_3.png	3	Y_4.png	4	confidence.png	1	guessing.png	2	respond_yes.png	3	respond_no.png	4	Word 54 of 80	1	Image 1 of 5	1	water	50
1	testBlock	centre_mouse	114	55	reveal	im0000056.jpg	N_1.png	1	N_2.png	2	N_3.png	3	N_4.png	4	Y_1.png	1	Y_2.png	2	Y_3.png	3	Y_4.png	4	confidence.png	1	guessing.png	2	respond_yes.png	3	respond_no.png	4	Word 54 of 80	1	Image 1 of 5	1	reveal.png	5
1	testBlock	absent_trial	115	35	no_4	im0000056.jpg	N_1.png	1	N_2.png	2	N_3.png	3	N_4.png	4	Y_1.png	1	Y_2.png	2	Y_3.png	3	Y_4.png	4	confidence.png	1	guessing.png	2	respond_yes.png	3	respond_no.png	4	Word 55 of 80	1	Image 1 of 5	1	sunlight	17
1	testBlock	centre_mouse	116	63	reveal	im0000056.jpg	N_1.png	1	N_2.png	2	N_3.png	3	N_4.png	4	Y_1.png	1	Y_2.png	2	Y_3.png	3	Y_4.png	4	confidence.png	1	guessing.png	2	respond_yes.png	3	respond_no.png	4	Word 55 of 80	1	Image 1 of 5	1	reveal.png	5
1	testBlock	absent_trial	117	41	no_4	im0000056.jpg	N_1.png	1	N_2.png	2	N_3.png	3	N_4.png	4	Y_1.png	1	Y_2.png	2	Y_3.png	3	Y_4.png	4	confidence.png	1	guessing.png	2	respond_yes.png	3	respond_no.png	4	Word 56 of 80	1	Image 1 of 5	1	symbol	21
1	testBlock	centre_mouse	118	50	reveal	im0000056.jpg	N_1.png	1	N_2.png	2	N_3.png	3	N_4.png	4	Y_1.png	1	Y_2.png	2	Y_3.png	3	Y_4.png	4	confidence.png	1	guessing.png	2	respond_yes.png	3	respond_no.png	4	Word 56 of 80	1	Image 1 of 5	1	reveal.png	5
1	testBlock	absent_trial	119	64	no_4	im0000056.jpg	N_1.png	1	N_2.png	2	N_3.png	3	N_4.png	4	Y_1.png	1	Y_2.png	2	Y_3.png	3	Y_4.png	4	confidence.png	1	guessing.png	2	respond_yes.png	3	respond_no.png	4	Word 57 of 80	1	Image 1 of 5	1	fight	11
1	testBlock	centre_mouse	120	98	reveal	im0000056.jpg	N_1.png	1	N_2.png	2	N_3.png	3	N_4.png	4	Y_1.png	1	Y_2.png	2	Y_3.png	3	Y_4.png	4	confidence.png	1	guessing.png	2	respond_yes.png	3	respond_no.png	4	Word 57 of 80	1	Image 1 of 5	1	reveal.png	5
1	testBlock	present_trial	121	72	no_1	im0000056.jpg	N_1.png	1	N_2.png	2	N_3.png	3	N_4.png	4	Y_1.png	1	Y_2.png	2	Y_3.png	3	Y_4.png	4	confidence.png	1	guessing.png	2	respond_yes.png	3	respond_no.png	4	Word 58 of 80	1	Image 1 of 5	1	busy	35
1	testBlock	centre_mouse	122	28	reveal	im0000056.jpg	N_1.png	1	N_2.png	2	N_3.png	3	N_4.png	4	Y_1.png	1	Y_2.png	2	Y_3.png	3	Y_4.png	4	confidence.png	1	guessing.png	2	respond_yes.png	3	respond_no.png	4	Word 58 of 80	1	Image 1 of 5	1	reveal.png	5
1	testBlock	absent_trial	123	38	no_3	im0000056.jpg	N_1.png	1	N_2.png	2	N_3.png	3	N_4.png	4	Y_1.png	1	Y_2.png	2	Y_3.png	3	Y_4.png	4	confidence.png	1	guessing.png	2	respond_yes.png	3	respond_no.png	4	Word 59 of 80	1	Image 1 of 5	1	excite	22
1	testBlock	centre_mouse	124	56	reveal	im0000056.jpg	N_1.png	1	N_2.png	2	N_3.png	3	N_4.png	4	Y_1.png	1	Y_2.png	2	Y_3.png	3	Y_4.png	4	confidence.png	1	guessing.png	2	respond_yes.png	3	respond_no.png	4	Word 59 of 80	1	Image 1 of 5	1	reveal.png	5
1	testBlock	absent_trial	125	35	no_2	im0000056.jpg	N_1.png	1	N_2.png	2	N_3.png	3	N_4.png	4	Y_1.png	1	Y_2.png	2	Y_3.png	3	Y_4.png	4	confidence.png	1	guessing.png	2	respond_yes.png	3	respond_no.png	4	Word 60 of 80	1	Image 1 of 5	1	long-hair	44
1	testBlock	centre_mouse	126	45	reveal	im0000056.jpg	N_1.png	1	N_2.png	2	N_3.png	3	N_4.png	4	Y_1.png	1	Y_2.png	2	Y_3.png	3	Y_4.png	4	confidence.png	1	guessing.png	2	respond_yes.png	3	respond_no.png	4	Word 60 of 80	1	Image 1 of 5	1	reveal.png	5
1	testBlock	absent_trial	127	27	no_3	im0000056.jpg	N_1.png	1	N_2.png	2	N_3.png	3	N_4.png	4	Y_1.png	1	Y_2.png	2	Y_3.png	3	Y_4.png	4	confidence.png	1	guessing.png	2	respond_yes.png	3	respond_no.png	4	Word 61 of 80	1	Image 1 of 5	1	currency	7
1	testBlock	centre_mouse	128	70	reveal	im0000056.jpg	N_1.png	1	N_2.png	2	N_3.png	3	N_4.png	4	Y_1.png	1	Y_2.png	2	Y_3.png	3	Y_4.png	4	confidence.png	1	guessing.png	2	respond_yes.png	3	respond_no.png	4	Word 61 of 80	1	Image 1 of 5	1	reveal.png	5
1	testBlock	present_trial	129	40	yes_3	im0000056.jpg	N_1.png	1	N_2.png	2	N_3.png	3	N_4.png	4	Y_1.png	1	Y_2.png	2	Y_3.png	3	Y_4.png	4	confidence.png	1	guessing.png	2	respond_yes.png	3	respond_no.png	4	Word 62 of 80	1	Image 1 of 5	1	sunny-day	15
1	testBlock	centre_mouse	130	53	reveal	im0000056.jpg	N_1.png	1	N_2.png	2	N_3.png	3	N_4.png	4	Y_1.png	1	Y_2.png	2	Y_3.png	3	Y_4.png	4	confidence.png	1	guessing.png	2	respond_yes.png	3	respond_no.png	4	Word 62 of 80	1	Image 1 of 5	1	reveal.png	5
1	testBlock	present_trial	131	45	yes_4	im0000056.jpg	N_1.png	1	N_2.png	2	N_3.png	3	N_4.png	4	Y_1.png	1	Y_2.png	2	Y_3.png	3	Y_4.png	4	confidence.png	1	guessing.png	2	respond_yes.png	3	respond_no.png	4	Word 63 of 80	1	Image 1 of 5	1	dubai	31
1	testBlock	centre_mouse	132	48	reveal	im0000056.jpg	N_1.png	1	N_2.png	2	N_3.png	3	N_4.png	4	Y_1.png	1	Y_2.png	2	Y_3.png	3	Y_4.png	4	confidence.png	1	guessing.png	2	respond_yes.png	3	respond_no.png	4	Word 63 of 80	1	Image 1 of 5	1	reveal.png	5
1	testBlock	absent_trial	133	29	no_2	im0000056.jpg	N_1.png	1	N_2.png	2	N_3.png	3	N_4.png	4	Y_1.png	1	Y_2.png	2	Y_3.png	3	Y_4.png	4	confidence.png	1	guessing.png	2	respond_yes.png	3	respond_no.png	4	Word 64 of 80	1	Image 1 of 5	1	stress	9
1	testBlock	centre_mouse	134	23	reveal	im0000056.jpg	N_1.png	1	N_2.png	2	N_3.png	3	N_4.png	4	Y_1.png	1	Y_2.png	2	Y_3.png	3	Y_4.png	4	confidence.png	1	guessing.png	2	respond_yes.png	3	respond_no.png	4	Word 64 of 80	1	Image 1 of 5	1	reveal.png	5
1	testBlock	present_trial	135	48	yes_3	im0000056.jpg	N_1.png	1	N_2.png	2	N_3.png	3	N_4.png	4	Y_1.png	1	Y_2.png	2	Y_3.png	3	Y_4.png	4	confidence.png	1	guessing.png	2	respond_yes.png	3	respond_no.png	4	Word 65 of 80	1	Image 1 of 5	1	skyline	10
1	testBlock	centre_mouse	136	53	reveal	im0000056.jpg	N_1.png	1	N_2.png	2	N_3.png	3	N_4.png	4	Y_1.png	1	Y_2.png	2	Y_3.png	3	Y_4.png	4	confidence.png	1	guessing.png	2	respond_yes.png	3	respond_no.png	4	Word 65 of 80	1	Image 1 of 5	1	reveal.png	5
1	testBlock	present_trial	137	65	yes_4	im0000056.jpg	N_1.png	1	N_2.png	2	N_3.png	3	N_4.png	4	Y_1.png	1	Y_2.png	2	Y_3.png	3	Y_4.png	4	confidence.png	1	guessing.png	2	respond_yes.png	3	respond_no.png	4	Word 66 of 80	1	Image 1 of 5	1	apartment	45
1	testBlock	centre_mouse	138	42	reveal	im0000056.jpg	N_1.png	1	N_2.png	2	N_3.png	3	N_4.png	4	Y_1.png	1	Y_2.png	2	Y_3.png	3	Y_4.png	4	confidence.png	1	guessing.png	2	respond_yes.png	3	respond_no.png	4	Word 66 of 80	1	Image 1 of 5	1	reveal.png	5
1	testBlock	present_trial	139	54	yes_3	im0000056.jpg	N_1.png	1	N_2.png	2	N_3.png	3	N_4.png	4	Y_1.png	1	Y_2.png	2	Y_3.png	3	Y_4.png	4	confidence.png	1	guessing.png	2	respond_yes.png	3	respond_no.png	4	Word 67 of 80	1	Image 1 of 5	1	skyscraper	13
1	testBlock	centre_mouse	140	37	reveal	im0000056.jpg	N_1.png	1	N_2.png	2	N_3.png	3	N_4.png	4	Y_1.png	1	Y_2.png	2	Y_3.png	3	Y_4.png	4	confidence.png	1	guessing.png	2	respond_yes.png	3	respond_no.png	4	Word 67 of 80	1	Image 1 of 5	1	reveal.png	5
1	testBlock	present_trial	141	49	no_3	im0000056.jpg	N_1.png	1	N_2.png	2	N_3.png	3	N_4.png	4	Y_1.png	1	Y_2.png	2	Y_3.png	3	Y_4.png	4	confidence.png	1	guessing.png	2	respond_yes.png	3	respond_no.png	4	Word 68 of 80	1	Image 1 of 5	1	good	26
1	testBlock	centre_mouse	142	49	reveal	im0000056.jpg	N_1.png	1	N_2.png	2	N_3.png	3	N_4.png	4	Y_1.png	1	Y_2.png	2	Y_3.png	3	Y_4.png	4	confidence.png	1	guessing.png	2	respond_yes.png	3	respond_no.png	4	Word 68 of 80	1	Image 1 of 5	1	reveal.png	5
1	testBlock	present_trial	143	59	yes_3	im0000056.jpg	N_1.png	1	N_2.png	2	N_3.png	3	N_4.png	4	Y_1.png	1	Y_2.png	2	Y_3.png	3	Y_4.png	4	confidence.png	1	guessing.png	2	respond_yes.png	3	respond_no.png	4	Word 69 of 80	1	Image 1 of 5	1	natural	24
1	testBlock	centre_mouse	144	43	reveal	im0000056.jpg	N_1.png	1	N_2.png	2	N_3.png	3	N_4.png	4	Y_1.png	1	Y_2.png	2	Y_3.png	3	Y_4.png	4	confidence.png	1	guessing.png	2	respond_yes.png	3	respond_no.png	4	Word 69 of 80	1	Image 1 of 5	1	reveal.png	5
1	testBlock	present_trial	145	58	yes_3	im0000056.jpg	N_1.png	1	N_2.png	2	N_3.png	3	N_4.png	4	Y_1.png	1	Y_2.png	2	Y_3.png	3	Y_4.png	4	confidence.png	1	guessing.png	2	respond_yes.png	3	respond_no.png	4	Word 70 of 80	1	Image 1 of 5	1	sea	6
1	testBlock	centre_mouse	146	49	reveal	im0000056.jpg	N_1.png	1	N_2.png	2	N_3.png	3	N_4.png	4	Y_1.png	1	Y_2.png	2	Y_3.png	3	Y_4.png	4	confidence.png	1	guessing.png	2	respond_yes.png	3	respond_no.png	4	Word 70 of 80	1	Image 1 of 5	1	reveal.png	5
1	testBlock	present_trial	147	52	yes_4	im0000056.jpg	N_1.png	1	N_2.png	2	N_3.png	3	N_4.png	4	Y_1.png	1	Y_2.png	2	Y_3.png	3	Y_4.png	4	confidence.png	1	guessing.png	2	respond_yes.png	3	respond_no.png	4	Word 71 of 80	1	Image 1 of 5	1	office	21
1	testBlock	centre_mouse	148	39	reveal	im0000056.jpg	N_1.png	1	N_2.png	2	N_3.png	3	N_4.png	4	Y_1.png	1	Y_2.png	2	Y_3.png	3	Y_4.png	4	confidence.png	1	guessing.png	2	respond_yes.png	3	respond_no.png	4	Word 71 of 80	1	Image 1 of 5	1	reveal.png	5
1	testBlock	absent_trial	149	51	no_2	im0000056.jpg	N_1.png	1	N_2.png	2	N_3.png	3	N_4.png	4	Y_1.png	1	Y_2.png	2	Y_3.png	3	Y_4.png	4	confidence.png	1	guessing.png	2	respond_yes.png	3	respond_no.png	4	Word 72 of 80	1	Image 1 of 5	1	seal	20
1	testBlock	centre_mouse	150	36	reveal	im0000056.jpg	N_1.png	1	N_2.png	2	N_3.png	3	N_4.png	4	Y_1.png	1	Y_2.png	2	Y_3.png	3	Y_4.png	4	confidence.png	1	guessing.png	2	respond_yes.png	3	respond_no.png	4	Word 72 of 80	1	Image 1 of 5	1	reveal.png	5
1	testBlock	absent_trial	151	55	yes_3	im0000056.jpg	N_1.png	1	N_2.png	2	N_3.png	3	N_4.png	4	Y_1.png	1	Y_2.png	2	Y_3.png	3	Y_4.png	4	confidence.png	1	guessing.png	2	respond_yes.png	3	respond_no.png	4	Word 73 of 80	1	Image 1 of 5	1	beautiful	41
1	testBlock	centre_mouse	152	50	reveal	im0000056.jpg	N_1.png	1	N_2.png	2	N_3.png	3	N_4.png	4	Y_1.png	1	Y_2.png	2	Y_3.png	3	Y_4.png	4	confidence.png	1	guessing.png	2	respond_yes.png	3	respond_no.png	4	Word 73 of 80	1	Image 1 of 5	1	reveal.png	5
1	testBlock	present_trial	153	39	yes_3	im0000056.jpg	N_1.png	1	N_2.png	2	N_3.png	3	N_4.png	4	Y_1.png	1	Y_2.png	2	Y_3.png	3	Y_4.png	4	confidence.png	1	guessing.png	2	respond_yes.png	3	respond_no.png	4	Word 74 of 80	1	Image 1 of 5	1	concrete	18
1	testBlock	centre_mouse	154	45	reveal	im0000056.jpg	N_1.png	1	N_2.png	2	N_3.png	3	N_4.png	4	Y_1.png	1	Y_2.png	2	Y_3.png	3	Y_4.png	4	confidence.png	1	guessing.png	2	respond_yes.png	3	respond_no.png	4	Word 74 of 80	1	Image 1 of 5	1	reveal.png	5
1	testBlock	absent_trial	155	49	yes_4	im0000056.jpg	N_1.png	1	N_2.png	2	N_3.png	3	N_4.png	4	Y_1.png	1	Y_2.png	2	Y_3.png	3	Y_4.png	4	confidence.png	1	guessing.png	2	respond_yes.png	3	respond_no.png	4	Word 75 of 80	1	Image 1 of 5	1	pant	29
1	testBlock	centre_mouse	156	39	reveal	im0000056.jpg	N_1.png	1	N_2.png	2	N_3.png	3	N_4.png	4	Y_1.png	1	Y_2.png	2	Y_3.png	3	Y_4.png	4	confidence.png	1	guessing.png	2	respond_yes.png	3	respond_no.png	4	Word 75 of 80	1	Image 1 of 5	1	reveal.png	5
1	testBlock	present_trial	157	35	yes_3	im0000056.jpg	N_1.png	1	N_2.png	2	N_3.png	3	N_4.png	4	Y_1.png	1	Y_2.png	2	Y_3.png	3	Y_4.png	4	confidence.png	1	guessing.png	2	respond_yes.png	3	respond_no.png	4	Word 76 of 80	1	Image 1 of 5	1	urban	19
1	testBlock	centre_mouse	158	47	reveal	im0000056.jpg	N_1.png	1	N_2.png	2	N_3.png	3	N_4.png	4	Y_1.png	1	Y_2.png	2	Y_3.png	3	Y_4.png	4	confidence.png	1	guessing.png	2	respond_yes.png	3	respond_no.png	4	Word 76 of 80	1	Image 1 of 5	1	reveal.png	5
1	testBlock	absent_trial	159	37	yes_2	im0000056.jpg	N_1.png	1	N_2.png	2	N_3.png	3	N_4.png	4	Y_1.png	1	Y_2.png	2	Y_3.png	3	Y_4.png	4	confidence.png	1	guessing.png	2	respond_yes.png	3	respond_no.png	4	Word 77 of 80	1	Image 1 of 5	1	old-man	16
1	testBlock	centre_mouse	160	45	reveal	im0000056.jpg	N_1.png	1	N_2.png	2	N_3.png	3	N_4.png	4	Y_1.png	1	Y_2.png	2	Y_3.png	3	Y_4.png	4	confidence.png	1	guessing.png	2	respond_yes.png	3	respond_no.png	4	Word 77 of 80	1	Image 1 of 5	1	reveal.png	5
1	testBlock	absent_trial	161	31	no_4	im0000056.jpg	N_1.png	1	N_2.png	2	N_3.png	3	N_4.png	4	Y_1.png	1	Y_2.png	2	Y_3.png	3	Y_4.png	4	confidence.png	1	guessing.png	2	respond_yes.png	3	respond_no.png	4	Word 78 of 80	1	Image 1 of 5	1	o	27
1	testBlock	centre_mouse	162	58	reveal	im0000056.jpg	N_1.png	1	N_2.png	2	N_3.png	3	N_4.png	4	Y_1.png	1	Y_2.png	2	Y_3.png	3	Y_4.png	4	confidence.png	1	guessing.png	2	respond_yes.png	3	respond_no.png	4	Word 78 of 80	1	Image 1 of 5	1	reveal.png	5
1	testBlock	present_trial	163	43	yes_4	im0000056.jpg	N_1.png	1	N_2.png	2	N_3.png	3	N_4.png	4	Y_1.png	1	Y_2.png	2	Y_3.png	3	Y_4.png	4	confidence.png	1	guessing.png	2	respond_yes.png	3	respond_no.png	4	Word 79 of 80	1	Image 1 of 5	1	sunny	37
1	testBlock	centre_mouse	164	33	reveal	im0000056.jpg	N_1.png	1	N_2.png	2	N_3.png	3	N_4.png	4	Y_1.png	1	Y_2.png	2	Y_3.png	3	Y_4.png	4	confidence.png	1	guessing.png	2	respond_yes.png	3	respond_no.png	4	Word 79 of 80	1	Image 1 of 5	1	reveal.png	5
1	testBlock	present_trial	165	56	no_4	im0000056.jpg	N_1.png	1	N_2.png	2	N_3.png	3	N_4.png	4	Y_1.png	1	Y_2.png	2	Y_3.png	3	Y_4.png	4	confidence.png	1	guessing.png	2	respond_yes.png	3	respond_no.png	4	Word 80 of 80	1	Image 1 of 5	1	daytime	9
1	testBlock	centre_mouse	166	36	reveal	im0000056.jpg	N_1.png	1	N_2.png	2	N_3.png	3	N_4.png	4	Y_1.png	1	Y_2.png	2	Y_3.png	3	Y_4.png	4	confidence.png	1	guessing.png	2	respond_yes.png	3	respond_no.png	4	Word 80 of 80	1	Image 1 of 5	1	reveal.png	5
1	testBlock	test	1	1	0	im0000056.jpg	+	1	im0000063.jpg	4	mask2.jpg	2	mask5.jpg	5	mask3.jpg	3	mask3.jpg	3	mask1.jpg	1	0	0	0	0	0	0	0	0	0	0	0	0	0	0	0	0
1	testBlock	centre_mouse	2	41	reveal	im0000056.jpg	N_1.png	1	N_2.png	2	N_3.png	3	N_4.png	4	Y_1.png	1	Y_2.png	2	Y_3.png	3	Y_4.png	4	confidence.png	1	guessing.png	2	respond_yes.png	3	respond_no.png	4	Word 0 of 80	1	Image 2 of 5	1	reveal.png	5
1	testBlock	absent_trial	3	33	no_1	im0000063.jpg	N_1.png	1	N_2.png	2	N_3.png	3	N_4.png	4	Y_1.png	1	Y_2.png	2	Y_3.png	3	Y_4.png	4	confidence.png	1	guessing.png	2	respond_yes.png	3	respond_no.png	4	Word 1 of 80	1	Image 2 of 5	1	spill	31
1	testBlock	centre_mouse	4	50	reveal	im0000063.jpg	N_1.png	1	N_2.png	2	N_3.png	3	N_4.png	4	Y_1.png	1	Y_2.png	2	Y_3.png	3	Y_4.png	4	confidence.png	1	guessing.png	2	respond_yes.png	3	respond_no.png	4	Word 1 of 80	1	Image 2 of 5	1	reveal.png	5
1	testBlock	present_trial	5	47	yes_4	im0000063.jpg	N_1.png	1	N_2.png	2	N_3.png	3	N_4.png	4	Y_1.png	1	Y_2.png	2	Y_3.png	3	Y_4.png	4	confidence.png	1	guessing.png	2	respond_yes.png	3	respond_no.png	4	Word 2 of 80	1	Image 2 of 5	1	grass	21
1	testBlock	centre_mouse	6	44	reveal	im0000063.jpg	N_1.png	1	N_2.png	2	N_3.png	3	N_4.png	4	Y_1.png	1	Y_2.png	2	Y_3.png	3	Y_4.png	4	confidence.png	1	guessing.png	2	respond_yes.png	3	respond_no.png	4	Word 2 of 80	1	Image 2 of 5	1	reveal.png	5
1	testBlock	present_trial	7	42	yes_3	im0000063.jpg	N_1.png	1	N_2.png	2	N_3.png	3	N_4.png	4	Y_1.png	1	Y_2.png	2	Y_3.png	3	Y_4.png	4	confidence.png	1	guessing.png	2	respond_yes.png	3	respond_no.png	4	Word 3 of 80	1	Image 2 of 5	1	friendly	39
1	testBlock	centre_mouse	8	48	reveal	im0000063.jpg	N_1.png	1	N_2.png	2	N_3.png	3	N_4.png	4	Y_1.png	1	Y_2.png	2	Y_3.png	3	Y_4.png	4	confidence.png	1	guessing.png	2	respond_yes.png	3	respond_no.png	4	Word 3 of 80	1	Image 2 of 5	1	reveal.png	5
1	testBlock	absent_trial	9	48	yes_1	im0000063.jpg	N_1.png	1	N_2.png	2	N_3.png	3	N_4.png	4	Y_1.png	1	Y_2.png	2	Y_3.png	3	Y_4.png	4	confidence.png	1	guessing.png	2	respond_yes.png	3	respond_no.png	4	Word 4 of 80	1	Image 2 of 5	1	smile	43
1	testBlock	centre_mouse	10	32	reveal	im0000063.jpg	N_1.png	1	N_2.png	2	N_3.png	3	N_4.png	4	Y_1.png	1	Y_2.png	2	Y_3.png	3	Y_4.png	4	confidence.png	1	guessing.png	2	respond_yes.png	3	respond_no.png	4	Word 4 of 80	1	Image 2 of 5	1	reveal.png	5
1	testBlock	absent_trial	11	33	no_4	im0000063.jpg	N_1.png	1	N_2.png	2	N_3.png	3	N_4.png	4	Y_1.png	1	Y_2.png	2	Y_3.png	3	Y_4.png	4	confidence.png	1	guessing.png	2	respond_yes.png	3	respond_no.png	4	Word 5 of 80	1	Image 2 of 5	1	morning	23
1	testBlock	centre_mouse	12	40	reveal	im0000063.jpg	N_1.png	1	N_2.png	2	N_3.png	3	N_4.png	4	Y_1.png	1	Y_2.png	2	Y_3.png	3	Y_4.png	4	confidence.png	1	guessing.png	2	respond_yes.png	3	respond_no.png	4	Word 5 of 80	1	Image 2 of 5	1	reveal.png	5
1	testBlock	present_trial	13	20	yes_1	im0000063.jpg	N_1.png	1	N_2.png	2	N_3.png	3	N_4.png	4	Y_1.png	1	Y_2.png	2	Y_3.png	3	Y_4.png	4	confidence.png	1	guessing.png	2	respond_yes.png	3	respond_no.png	4	Word 6 of 80	1	Image 2 of 5	1	hippopotamus	12
1	testBlock	centre_mouse	14	39	reveal	im0000063.jpg	N_1.png	1	N_2.png	2	N_3.png	3	N_4.png	4	Y_1.png	1	Y_2.png	2	Y_3.png	3	Y_4.png	4	confidence.png	1	guessing.png	2	respond_yes.png	3	respond_no.png	4	Word 6 of 80	1	Image 2 of 5	1	reveal.png	5
1	testBlock	present_trial	15	61	yes_2	im0000063.jpg	N_1.png	1	N_2.png	2	N_3.png	3	N_4.png	4	Y_1.png	1	Y_2.png	2	Y_3.png	3	Y_4.png	4	confidence.png	1	guessing.png	2	respond_yes.png	3	respond_no.png	4	Word 7 of 80	1	Image 2 of 5	1	pair	36
1	testBlock	centre_mouse	16	45	reveal	im0000063.jpg	N_1.png	1	N_2.png	2	N_3.png	3	N_4.png	4	Y_1.png	1	Y_2.png	2	Y_3.png	3	Y_4.png	4	confidence.png	1	guessing.png	2	respond_yes.png	3	respond_no.png	4	Word 7 of 80	1	Image 2 of 5	1	reveal.png	5
1	testBlock	absent_trial	17	29	no_3	im0000063.jpg	N_1.png	1	N_2.png	2	N_3.png	3	N_4.png	4	Y_1.png	1	Y_2.png	2	Y_3.png	3	Y_4.png	4	confidence.png	1	guessing.png	2	respond_yes.png	3	respond_no.png	4	Word 8 of 80	1	Image 2 of 5	1	build	26
1	testBlock	centre_mouse	18	43	reveal	im0000063.jpg	N_1.png	1	N_2.png	2	N_3.png	3	N_4.png	4	Y_1.png	1	Y_2.png	2	Y_3.png	3	Y_4.png	4	confidence.png	1	guessing.png	2	respond_yes.png	3	respond_no.png	4	Word 8 of 80	1	Image 2 of 5	1	reveal.png	5
1	testBlock	absent_trial	19	58	yes_3	im0000063.jpg	N_1.png	1	N_2.png	2	N_3.png	3	N_4.png	4	Y_1.png	1	Y_2.png	2	Y_3.png	3	Y_4.png	4	confidence.png	1	guessing.png	2	respond_yes.png	3	respond_no.png	4	Word 9 of 80	1	Image 2 of 5	1	grass	42
1	testBlock	centre_mouse	20	50	reveal	im0000063.jpg	N_1.png	1	N_2.png	2	N_3.png	3	N_4.png	4	Y_1.png	1	Y_2.png	2	Y_3.png	3	Y_4.png	4	confidence.png	1	guessing.png	2	respond_yes.png	3	respond_no.png	4	Word 9 of 80	1	Image 2 of 5	1	reveal.png	5
1	testBlock	present_trial	21	58	yes_3	im0000063.jpg	N_1.png	1	N_2.png	2	N_3.png	3	N_4.png	4	Y_1.png	1	Y_2.png	2	Y_3.png	3	Y_4.png	4	confidence.png	1	guessing.png	2	respond_yes.png	3	respond_no.png	4	Word 10 of 80	1	Image 2 of 5	1	love	40
1	testBlock	centre_mouse	22	50	reveal	im0000063.jpg	N_1.png	1	N_2.png	2	N_3.png	3	N_4.png	4	Y_1.png	1	Y_2.png	2	Y_3.png	3	Y_4.png	4	confidence.png	1	guessing.png	2	respond_yes.png	3	respond_no.png	4	Word 10 of 80	1	Image 2 of 5	1	reveal.png	5
1	testBlock	absent_trial	23	58	no_3	im0000063.jpg	N_1.png	1	N_2.png	2	N_3.png	3	N_4.png	4	Y_1.png	1	Y_2.png	2	Y_3.png	3	Y_4.png	4	confidence.png	1	guessing.png	2	respond_yes.png	3	respond_no.png	4	Word 11 of 80	1	Image 2 of 5	1	boat	32
1	testBlock	centre_mouse	24	55	reveal	im0000063.jpg	N_1.png	1	N_2.png	2	N_3.png	3	N_4.png	4	Y_1.png	1	Y_2.png	2	Y_3.png	3	Y_4.png	4	confidence.png	1	guessing.png	2	respond_yes.png	3	respond_no.png	4	Word 11 of 80	1	Image 2 of 5	1	reveal.png	5
1	testBlock	absent_trial	25	50	no_3	im0000063.jpg	N_1.png	1	N_2.png	2	N_3.png	3	N_4.png	4	Y_1.png	1	Y_2.png	2	Y_3.png	3	Y_4.png	4	confidence.png	1	guessing.png	2	respond_yes.png	3	respond_no.png	4	Word 12 of 80	1	Image 2 of 5	1	local-place	27
1	testBlock	centre_mouse	26	54	reveal	im0000063.jpg	N_1.png	1	N_2.png	2	N_3.png	3	N_4.png	4	Y_1.png	1	Y_2.png	2	Y_3.png	3	Y_4.png	4	confidence.png	1	guessing.png	2	respond_yes.png	3	respond_no.png	4	Word 12 of 80	1	Image 2 of 5	1	reveal.png	5
1	testBlock	present_trial	27	35	yes_3	im0000063.jpg	N_1.png	1	N_2.png	2	N_3.png	3	N_4.png	4	Y_1.png	1	Y_2.png	2	Y_3.png	3	Y_4.png	4	confidence.png	1	guessing.png	2	respond_yes.png	3	respond_no.png	4	Word 13 of 80	1	Image 2 of 5	1	peaceful	33
1	testBlock	centre_mouse	28	50	reveal	im0000063.jpg	N_1.png	1	N_2.png	2	N_3.png	3	N_4.png	4	Y_1.png	1	Y_2.png	2	Y_3.png	3	Y_4.png	4	confidence.png	1	guessing.png	2	respond_yes.png	3	respond_no.png	4	Word 13 of 80	1	Image 2 of 5	1	reveal.png	5
1	testBlock	absent_trial	29	42	yes_2	im0000063.jpg	N_1.png	1	N_2.png	2	N_3.png	3	N_4.png	4	Y_1.png	1	Y_2.png	2	Y_3.png	3	Y_4.png	4	confidence.png	1	guessing.png	2	respond_yes.png	3	respond_no.png	4	Word 14 of 80	1	Image 2 of 5	1	morning	45
1	testBlock	centre_mouse	30	48	reveal	im0000063.jpg	N_1.png	1	N_2.png	2	N_3.png	3	N_4.png	4	Y_1.png	1	Y_2.png	2	Y_3.png	3	Y_4.png	4	confidence.png	1	guessing.png	2	respond_yes.png	3	respond_no.png	4	Word 14 of 80	1	Image 2 of 5	1	reveal.png	5
1	testBlock	present_trial	31	26	no_2	im0000063.jpg	N_1.png	1	N_2.png	2	N_3.png	3	N_4.png	4	Y_1.png	1	Y_2.png	2	Y_3.png	3	Y_4.png	4	confidence.png	1	guessing.png	2	respond_yes.png	3	respond_no.png	4	Word 15 of 80	1	Image 2 of 5	1	baby-hippo	26
1	testBlock	centre_mouse	32	43	reveal	im0000063.jpg	N_1.png	1	N_2.png	2	N_3.png	3	N_4.png	4	Y_1.png	1	Y_2.png	2	Y_3.png	3	Y_4.png	4	confidence.png	1	guessing.png	2	respond_yes.png	3	respond_no.png	4	Word 15 of 80	1	Image 2 of 5	1	reveal.png	5
1	testBlock	present_trial	33	43	yes_3	im0000063.jpg	N_1.png	1	N_2.png	2	N_3.png	3	N_4.png	4	Y_1.png	1	Y_2.png	2	Y_3.png	3	Y_4.png	4	confidence.png	1	guessing.png	2	respond_yes.png	3	respond_no.png	4	Word 16 of 80	1	Image 2 of 5	1	rhino	6
1	testBlock	centre_mouse	34	47	reveal	im0000063.jpg	N_1.png	1	N_2.png	2	N_3.png	3	N_4.png	4	Y_1.png	1	Y_2.png	2	Y_3.png	3	Y_4.png	4	confidence.png	1	guessing.png	2	respond_yes.png	3	respond_no.png	4	Word 16 of 80	1	Image 2 of 5	1	reveal.png	5
1	testBlock	absent_trial	35	46	yes_4	im0000063.jpg	N_1.png	1	N_2.png	2	N_3.png	3	N_4.png	4	Y_1.png	1	Y_2.png	2	Y_3.png	3	Y_4.png	4	confidence.png	1	guessing.png	2	respond_yes.png	3	respond_no.png	4	Word 17 of 80	1	Image 2 of 5	1	static	12
1	testBlock	centre_mouse	36	42	reveal	im0000063.jpg	N_1.png	1	N_2.png	2	N_3.png	3	N_4.png	4	Y_1.png	1	Y_2.png	2	Y_3.png	3	Y_4.png	4	confidence.png	1	guessing.png	2	respond_yes.png	3	respond_no.png	4	Word 17 of 80	1	Image 2 of 5	1	reveal.png	5
1	testBlock	present_trial	37	28	yes_3	im0000063.jpg	N_1.png	1	N_2.png	2	N_3.png	3	N_4.png	4	Y_1.png	1	Y_2.png	2	Y_3.png	3	Y_4.png	4	confidence.png	1	guessing.png	2	respond_yes.png	3	respond_no.png	4	Word 18 of 80	1	Image 2 of 5	1	stand	37
1	testBlock	centre_mouse	38	41	reveal	im0000063.jpg	N_1.png	1	N_2.png	2	N_3.png	3	N_4.png	4	Y_1.png	1	Y_2.png	2	Y_3.png	3	Y_4.png	4	confidence.png	1	guessing.png	2	respond_yes.png	3	respond_no.png	4	Word 18 of 80	1	Image 2 of 5	1	reveal.png	5
1	testBlock	present_trial	39	35	no_4	im0000063.jpg	N_1.png	1	N_2.png	2	N_3.png	3	N_4.png	4	Y_1.png	1	Y_2.png	2	Y_3.png	3	Y_4.png	4	confidence.png	1	guessing.png	2	respond_yes.png	3	respond_no.png	4	Word 19 of 80	1	Image 2 of 5	1	blue-sky	15
1	testBlock	centre_mouse	40	35	reveal	im0000063.jpg	N_1.png	1	N_2.png	2	N_3.png	3	N_4.png	4	Y_1.png	1	Y_2.png	2	Y_3.png	3	Y_4.png	4	confidence.png	1	guessing.png	2	respond_yes.png	3	respond_no.png	4	Word 19 of 80	1	Image 2 of 5	1	reveal.png	5
1	testBlock	absent_trial	41	45	no_1	im0000063.jpg	N_1.png	1	N_2.png	2	N_3.png	3	N_4.png	4	Y_1.png	1	Y_2.png	2	Y_3.png	3	Y_4.png	4	confidence.png	1	guessing.png	2	respond_yes.png	3	respond_no.png	4	Word 20 of 80	1	Image 2 of 5	1	three-people	53
1	testBlock	centre_mouse	42	55	reveal	im0000063.jpg	N_1.png	1	N_2.png	2	N_3.png	3	N_4.png	4	Y_1.png	1	Y_2.png	2	Y_3.png	3	Y_4.png	4	confidence.png	1	guessing.png	2	respond_yes.png	3	respond_no.png	4	Word 20 of 80	1	Image 2 of 5	1	reveal.png	5
1	testBlock	catch_trial	43	37	no_1	im0000063.jpg	N_1.png	1	N_2.png	2	N_3.png	3	N_4.png	4	Y_1.png	1	Y_2.png	2	Y_3.png	3	Y_4.png	4	confidence.png	1	guessing.png	2	respond_yes.png	3	respond_no.png	4	Word 20 of 80	1	Image 2 of 5	1	PRESS: No 1	5
1	testBlock	centre_mouse	44	39	reveal	im0000063.jpg	N_1.png	1	N_2.png	2	N_3.png	3	N_4.png	4	Y_1.png	1	Y_2.png	2	Y_3.png	3	Y_4.png	4	confidence.png	1	guessing.png	2	respond_yes.png	3	respond_no.png	4	Word 20 of 80	1	Image 2 of 5	1	reveal.png	5
1	testBlock	absent_trial	45	45	no_3	im0000063.jpg	N_1.png	1	N_2.png	2	N_3.png	3	N_4.png	4	Y_1.png	1	Y_2.png	2	Y_3.png	3	Y_4.png	4	confidence.png	1	guessing.png	2	respond_yes.png	3	respond_no.png	4	Word 21 of 80	1	Image 2 of 5	1	crowd	51
1	testBlock	centre_mouse	46	46	reveal	im0000063.jpg	N_1.png	1	N_2.png	2	N_3.png	3	N_4.png	4	Y_1.png	1	Y_2.png	2	Y_3.png	3	Y_4.png	4	confidence.png	1	guessing.png	2	respond_yes.png	3	respond_no.png	4	Word 21 of 80	1	Image 2 of 5	1	reveal.png	5
1	testBlock	absent_trial	47	31	no_3	im0000063.jpg	N_1.png	1	N_2.png	2	N_3.png	3	N_4.png	4	Y_1.png	1	Y_2.png	2	Y_3.png	3	Y_4.png	4	confidence.png	1	guessing.png	2	respond_yes.png	3	respond_no.png	4	Word 22 of 80	1	Image 2 of 5	1	hillside	8
1	testBlock	centre_mouse	48	59	reveal	im0000063.jpg	N_1.png	1	N_2.png	2	N_3.png	3	N_4.png	4	Y_1.png	1	Y_2.png	2	Y_3.png	3	Y_4.png	4	confidence.png	1	guessing.png	2	respond_yes.png	3	respond_no.png	4	Word 22 of 80	1	Image 2 of 5	1	reveal.png	5
1	testBlock	absent_trial	49	51	no_3	im0000063.jpg	N_1.png	1	N_2.png	2	N_3.png	3	N_4.png	4	Y_1.png	1	Y_2.png	2	Y_3.png	3	Y_4.png	4	confidence.png	1	guessing.png	2	respond_yes.png	3	respond_no.png	4	Word 23 of 80	1	Image 2 of 5	1	wonder	33
1	testBlock	centre_mouse	50	68	reveal	im0000063.jpg	N_1.png	1	N_2.png	2	N_3.png	3	N_4.png	4	Y_1.png	1	Y_2.png	2	Y_3.png	3	Y_4.png	4	confidence.png	1	guessing.png	2	respond_yes.png	3	respond_no.png	4	Word 23 of 80	1	Image 2 of 5	1	reveal.png	5
1	testBlock	present_trial	51	61	no_1	im0000063.jpg	N_1.png	1	N_2.png	2	N_3.png	3	N_4.png	4	Y_1.png	1	Y_2.png	2	Y_3.png	3	Y_4.png	4	confidence.png	1	guessing.png	2	respond_yes.png	3	respond_no.png	4	Word 24 of 80	1	Image 2 of 5	1	bath	18
1	testBlock	centre_mouse	52	49	reveal	im0000063.jpg	N_1.png	1	N_2.png	2	N_3.png	3	N_4.png	4	Y_1.png	1	Y_2.png	2	Y_3.png	3	Y_4.png	4	confidence.png	1	guessing.png	2	respond_yes.png	3	respond_no.png	4	Word 24 of 80	1	Image 2 of 5	1	reveal.png	5
1	testBlock	absent_trial	53	55	yes_2	im0000063.jpg	N_1.png	1	N_2.png	2	N_3.png	3	N_4.png	4	Y_1.png	1	Y_2.png	2	Y_3.png	3	Y_4.png	4	confidence.png	1	guessing.png	2	respond_yes.png	3	respond_no.png	4	Word 25 of 80	1	Image 2 of 5	1	work	48
1	testBlock	centre_mouse	54	37	reveal	im0000063.jpg	N_1.png	1	N_2.png	2	N_3.png	3	N_4.png	4	Y_1.png	1	Y_2.png	2	Y_3.png	3	Y_4.png	4	confidence.png	1	guessing.png	2	respond_yes.png	3	respond_no.png	4	Word 25 of 80	1	Image 2 of 5	1	reveal.png	5
1	testBlock	absent_trial	55	32	yes_2	im0000063.jpg	N_1.png	1	N_2.png	2	N_3.png	3	N_4.png	4	Y_1.png	1	Y_2.png	2	Y_3.png	3	Y_4.png	4	confidence.png	1	guessing.png	2	respond_yes.png	3	respond_no.png	4	Word 26 of 80	1	Image 2 of 5	1	couple	41
1	testBlock	centre_mouse	56	43	reveal	im0000063.jpg	N_1.png	1	N_2.png	2	N_3.png	3	N_4.png	4	Y_1.png	1	Y_2.png	2	Y_3.png	3	Y_4.png	4	confidence.png	1	guessing.png	2	respond_yes.png	3	respond_no.png	4	Word 26 of 80	1	Image 2 of 5	1	reveal.png	5
1	testBlock	present_trial	57	38	yes_3	im0000063.jpg	N_1.png	1	N_2.png	2	N_3.png	3	N_4.png	4	Y_1.png	1	Y_2.png	2	Y_3.png	3	Y_4.png	4	confidence.png	1	guessing.png	2	respond_yes.png	3	respond_no.png	4	Word 27 of 80	1	Image 2 of 5	1	care	46
1	testBlock	centre_mouse	58	47	reveal	im0000063.jpg	N_1.png	1	N_2.png	2	N_3.png	3	N_4.png	4	Y_1.png	1	Y_2.png	2	Y_3.png	3	Y_4.png	4	confidence.png	1	guessing.png	2	respond_yes.png	3	respond_no.png	4	Word 27 of 80	1	Image 2 of 5	1	reveal.png	5
1	testBlock	present_trial	59	25	yes_4	im0000063.jpg	N_1.png	1	N_2.png	2	N_3.png	3	N_4.png	4	Y_1.png	1	Y_2.png	2	Y_3.png	3	Y_4.png	4	confidence.png	1	guessing.png	2	respond_yes.png	3	respond_no.png	4	Word 28 of 80	1	Image 2 of 5	1	family	8
1	testBlock	centre_mouse	60	55	reveal	im0000063.jpg	N_1.png	1	N_2.png	2	N_3.png	3	N_4.png	4	Y_1.png	1	Y_2.png	2	Y_3.png	3	Y_4.png	4	confidence.png	1	guessing.png	2	respond_yes.png	3	respond_no.png	4	Word 28 of 80	1	Image 2 of 5	1	reveal.png	5
1	testBlock	present_trial	61	49	yes_3	im0000063.jpg	N_1.png	1	N_2.png	2	N_3.png	3	N_4.png	4	Y_1.png	1	Y_2.png	2	Y_3.png	3	Y_4.png	4	confidence.png	1	guessing.png	2	respond_yes.png	3	respond_no.png	4	Word 29 of 80	1	Image 2 of 5	1	gray	47
1	testBlock	centre_mouse	62	48	reveal	im0000063.jpg	N_1.png	1	N_2.png	2	N_3.png	3	N_4.png	4	Y_1.png	1	Y_2.png	2	Y_3.png	3	Y_4.png	4	confidence.png	1	guessing.png	2	respond_yes.png	3	respond_no.png	4	Word 29 of 80	1	Image 2 of 5	1	reveal.png	5
1	testBlock	absent_trial	63	44	yes_1	im0000063.jpg	N_1.png	1	N_2.png	2	N_3.png	3	N_4.png	4	Y_1.png	1	Y_2.png	2	Y_3.png	3	Y_4.png	4	confidence.png	1	guessing.png	2	respond_yes.png	3	respond_no.png	4	Word 30 of 80	1	Image 2 of 5	1	girl	36
1	testBlock	centre_mouse	64	35	reveal	im0000063.jpg	N_1.png	1	N_2.png	2	N_3.png	3	N_4.png	4	Y_1.png	1	Y_2.png	2	Y_3.png	3	Y_4.png	4	confidence.png	1	guessing.png	2	respond_yes.png	3	respond_no.png	4	Word 30 of 80	1	Image 2 of 5	1	reveal.png	5
1	testBlock	absent_trial	65	46	yes_2	im0000063.jpg	N_1.png	1	N_2.png	2	N_3.png	3	N_4.png	4	Y_1.png	1	Y_2.png	2	Y_3.png	3	Y_4.png	4	confidence.png	1	guessing.png	2	respond_yes.png	3	respond_no.png	4	Word 31 of 80	1	Image 2 of 5	1	equipment	50
1	testBlock	centre_mouse	66	43	reveal	im0000063.jpg	N_1.png	1	N_2.png	2	N_3.png	3	N_4.png	4	Y_1.png	1	Y_2.png	2	Y_3.png	3	Y_4.png	4	confidence.png	1	guessing.png	2	respond_yes.png	3	respond_no.png	4	Word 31 of 80	1	Image 2 of 5	1	reveal.png	5
1	testBlock	absent_trial	67	37	no_4	im0000063.jpg	N_1.png	1	N_2.png	2	N_3.png	3	N_4.png	4	Y_1.png	1	Y_2.png	2	Y_3.png	3	Y_4.png	4	confidence.png	1	guessing.png	2	respond_yes.png	3	respond_no.png	4	Word 32 of 80	1	Image 2 of 5	1	build	28
1	testBlock	centre_mouse	68	16	reveal	im0000063.jpg	N_1.png	1	N_2.png	2	N_3.png	3	N_4.png	4	Y_1.png	1	Y_2.png	2	Y_3.png	3	Y_4.png	4	confidence.png	1	guessing.png	2	respond_yes.png	3	respond_no.png	4	Word 32 of 80	1	Image 2 of 5	1	reveal.png	5
1	testBlock	present_trial	69	35	yes_3	im0000063.jpg	N_1.png	1	N_2.png	2	N_3.png	3	N_4.png	4	Y_1.png	1	Y_2.png	2	Y_3.png	3	Y_4.png	4	confidence.png	1	guessing.png	2	respond_yes.png	3	respond_no.png	4	Word 33 of 80	1	Image 2 of 5	1	river	10
1	testBlock	centre_mouse	70	42	reveal	im0000063.jpg	N_1.png	1	N_2.png	2	N_3.png	3	N_4.png	4	Y_1.png	1	Y_2.png	2	Y_3.png	3	Y_4.png	4	confidence.png	1	guessing.png	2	respond_yes.png	3	respond_no.png	4	Word 33 of 80	1	Image 2 of 5	1	reveal.png	5
1	testBlock	present_trial	71	34	no_1	im0000063.jpg	N_1.png	1	N_2.png	2	N_3.png	3	N_4.png	4	Y_1.png	1	Y_2.png	2	Y_3.png	3	Y_4.png	4	confidence.png	1	guessing.png	2	respond_yes.png	3	respond_no.png	4	Word 34 of 80	1	Image 2 of 5	1	outdoor	25
1	testBlock	centre_mouse	72	39	reveal	im0000063.jpg	N_1.png	1	N_2.png	2	N_3.png	3	N_4.png	4	Y_1.png	1	Y_2.png	2	Y_3.png	3	Y_4.png	4	confidence.png	1	guessing.png	2	respond_yes.png	3	respond_no.png	4	Word 34 of 80	1	Image 2 of 5	1	reveal.png	5
1	testBlock	present_trial	73	31	yes_4	im0000063.jpg	N_1.png	1	N_2.png	2	N_3.png	3	N_4.png	4	Y_1.png	1	Y_2.png	2	Y_3.png	3	Y_4.png	4	confidence.png	1	guessing.png	2	respond_yes.png	3	respond_no.png	4	Word 35 of 80	1	Image 2 of 5	1	water	1
1	testBlock	centre_mouse	74	52	reveal	im0000063.jpg	N_1.png	1	N_2.png	2	N_3.png	3	N_4.png	4	Y_1.png	1	Y_2.png	2	Y_3.png	3	Y_4.png	4	confidence.png	1	guessing.png	2	respond_yes.png	3	respond_no.png	4	Word 35 of 80	1	Image 2 of 5	1	reveal.png	5
1	testBlock	present_trial	75	48	yes_3	im0000063.jpg	N_1.png	1	N_2.png	2	N_3.png	3	N_4.png	4	Y_1.png	1	Y_2.png	2	Y_3.png	3	Y_4.png	4	confidence.png	1	guessing.png	2	respond_yes.png	3	respond_no.png	4	Word 36 of 80	1	Image 2 of 5	1	big-hippo	27
1	testBlock	centre_mouse	76	53	reveal	im0000063.jpg	N_1.png	1	N_2.png	2	N_3.png	3	N_4.png	4	Y_1.png	1	Y_2.png	2	Y_3.png	3	Y_4.png	4	confidence.png	1	guessing.png	2	respond_yes.png	3	respond_no.png	4	Word 36 of 80	1	Image 2 of 5	1	reveal.png	5
1	testBlock	present_trial	77	35	no_1	im0000063.jpg	N_1.png	1	N_2.png	2	N_3.png	3	N_4.png	4	Y_1.png	1	Y_2.png	2	Y_3.png	3	Y_4.png	4	confidence.png	1	guessing.png	2	respond_yes.png	3	respond_no.png	4	Word 37 of 80	1	Image 2 of 5	1	fee	29
1	testBlock	centre_mouse	78	33	reveal	im0000063.jpg	N_1.png	1	N_2.png	2	N_3.png	3	N_4.png	4	Y_1.png	1	Y_2.png	2	Y_3.png	3	Y_4.png	4	confidence.png	1	guessing.png	2	respond_yes.png	3	respond_no.png	4	Word 37 of 80	1	Image 2 of 5	1	reveal.png	5
1	testBlock	present_trial	79	47	yes_3	im0000063.jpg	N_1.png	1	N_2.png	2	N_3.png	3	N_4.png	4	Y_1.png	1	Y_2.png	2	Y_3.png	3	Y_4.png	4	confidence.png	1	guessing.png	2	respond_yes.png	3	respond_no.png	4	Word 38 of 80	1	Image 2 of 5	1	mom	13
1	testBlock	centre_mouse	80	46	reveal	im0000063.jpg	N_1.png	1	N_2.png	2	N_3.png	3	N_4.png	4	Y_1.png	1	Y_2.png	2	Y_3.png	3	Y_4.png	4	confidence.png	1	guessing.png	2	respond_yes.png	3	respond_no.png	4	Word 38 of 80	1	Image 2 of 5	1	reveal.png	5
1	testBlock	present_trial	81	46	no_1	im0000063.jpg	N_1.png	1	N_2.png	2	N_3.png	3	N_4.png	4	Y_1.png	1	Y_2.png	2	Y_3.png	3	Y_4.png	4	confidence.png	1	guessing.png	2	respond_yes.png	3	respond_no.png	4	Word 39 of 80	1	Image 2 of 5	1	interest	49
1	testBlock	centre_mouse	82	42	reveal	im0000063.jpg	N_1.png	1	N_2.png	2	N_3.png	3	N_4.png	4	Y_1.png	1	Y_2.png	2	Y_3.png	3	Y_4.png	4	confidence.png	1	guessing.png	2	respond_yes.png	3	respond_no.png	4	Word 39 of 80	1	Image 2 of 5	1	reveal.png	5
1	testBlock	present_trial	83	47	no_3	im0000063.jpg	N_1.png	1	N_2.png	2	N_3.png	3	N_4.png	4	Y_1.png	1	Y_2.png	2	Y_3.png	3	Y_4.png	4	confidence.png	1	guessing.png	2	respond_yes.png	3	respond_no.png	4	Word 40 of 80	1	Image 2 of 5	1	mother	43
1	testBlock	centre_mouse	84	66	reveal	im0000063.jpg	N_1.png	1	N_2.png	2	N_3.png	3	N_4.png	4	Y_1.png	1	Y_2.png	2	Y_3.png	3	Y_4.png	4	confidence.png	1	guessing.png	2	respond_yes.png	3	respond_no.png	4	Word 40 of 80	1	Image 2 of 5	1	reveal.png	5
1	testBlock	absent_trial	85	30	yes_1	im0000063.jpg	N_1.png	1	N_2.png	2	N_3.png	3	N_4.png	4	Y_1.png	1	Y_2.png	2	Y_3.png	3	Y_4.png	4	confidence.png	1	guessing.png	2	respond_yes.png	3	respond_no.png	4	Word 41 of 80	1	Image 2 of 5	1	surgery	52
1	testBlock	centre_mouse	86	55	reveal	im0000063.jpg	N_1.png	1	N_2.png	2	N_3.png	3	N_4.png	4	Y_1.png	1	Y_2.png	2	Y_3.png	3	Y_4.png	4	confidence.png	1	guessing.png	2	respond_yes.png	3	respond_no.png	4	Word 41 of 80	1	Image 2 of 5	1	reveal.png	5
1	testBlock	present_trial	87	35	yes_4	im0000063.jpg	N_1.png	1	N_2.png	2	N_3.png	3	N_4.png	4	Y_1.png	1	Y_2.png	2	Y_3.png	3	Y_4.png	4	confidence.png	1	guessing.png	2	respond_yes.png	3	respond_no.png	4	Word 42 of 80	1	Image 2 of 5	1	mate	53
1	testBlock	centre_mouse	88	34	reveal	im0000063.jpg	N_1.png	1	N_2.png	2	N_3.png	3	N_4.png	4	Y_1.png	1	Y_2.png	2	Y_3.png	3	Y_4.png	4	confidence.png	1	guessing.png	2	respond_yes.png	3	respond_no.png	4	Word 42 of 80	1	Image 2 of 5	1	reveal.png	5
1	testBlock	absent_trial	89	40	yes_1	im0000063.jpg	N_1.png	1	N_2.png	2	N_3.png	3	N_4.png	4	Y_1.png	1	Y_2.png	2	Y_3.png	3	Y_4.png	4	confidence.png	1	guessing.png	2	respond_yes.png	3	respond_no.png	4	Word 43 of 80	1	Image 2 of 5	1	red-hair	49
1	testBlock	centre_mouse	90	43	reveal	im0000063.jpg	N_1.png	1	N_2.png	2	N_3.png	3	N_4.png	4	Y_1.png	1	Y_2.png	2	Y_3.png	3	Y_4.png	4	confidence.png	1	guessing.png	2	respond_yes.png	3	respond_no.png	4	Word 43 of 80	1	Image 2 of 5	1	reveal.png	5
1	testBlock	present_trial	91	52	yes_4	im0000063.jpg	N_1.png	1	N_2.png	2	N_3.png	3	N_4.png	4	Y_1.png	1	Y_2.png	2	Y_3.png	3	Y_4.png	4	confidence.png	1	guessing.png	2	respond_yes.png	3	respond_no.png	4	Word 44 of 80	1	Image 2 of 5	1	large	32
1	testBlock	centre_mouse	92	30	reveal	im0000063.jpg	N_1.png	1	N_2.png	2	N_3.png	3	N_4.png	4	Y_1.png	1	Y_2.png	2	Y_3.png	3	Y_4.png	4	confidence.png	1	guessing.png	2	respond_yes.png	3	respond_no.png	4	Word 44 of 80	1	Image 2 of 5	1	reveal.png	5
1	testBlock	present_trial	93	43	yes_4	im0000063.jpg	N_1.png	1	N_2.png	2	N_3.png	3	N_4.png	4	Y_1.png	1	Y_2.png	2	Y_3.png	3	Y_4.png	4	confidence.png	1	guessing.png	2	respond_yes.png	3	respond_no.png	4	Word 45 of 80	1	Image 2 of 5	1	sky	22
1	testBlock	centre_mouse	94	38	reveal	im0000063.jpg	N_1.png	1	N_2.png	2	N_3.png	3	N_4.png	4	Y_1.png	1	Y_2.png	2	Y_3.png	3	Y_4.png	4	confidence.png	1	guessing.png	2	respond_yes.png	3	respond_no.png	4	Word 45 of 80	1	Image 2 of 5	1	reveal.png	5
1	testBlock	absent_trial	95	27	no_4	im0000063.jpg	N_1.png	1	N_2.png	2	N_3.png	3	N_4.png	4	Y_1.png	1	Y_2.png	2	Y_3.png	3	Y_4.png	4	confidence.png	1	guessing.png	2	respond_yes.png	3	respond_no.png	4	Word 46 of 80	1	Image 2 of 5	1	tile-floor	47
1	testBlock	centre_mouse	96	30	reveal	im0000063.jpg	N_1.png	1	N_2.png	2	N_3.png	3	N_4.png	4	Y_1.png	1	Y_2.png	2	Y_3.png	3	Y_4.png	4	confidence.png	1	guessing.png	2	respond_yes.png	3	respond_no.png	4	Word 46 of 80	1	Image 2 of 5	1	reveal.png	5
1	testBlock	absent_trial	97	46	no_3	im0000063.jpg	N_1.png	1	N_2.png	2	N_3.png	3	N_4.png	4	Y_1.png	1	Y_2.png	2	Y_3.png	3	Y_4.png	4	confidence.png	1	guessing.png	2	respond_yes.png	3	respond_no.png	4	Word 47 of 80	1	Image 2 of 5	1	egypt	3
1	testBlock	centre_mouse	98	46	reveal	im0000063.jpg	N_1.png	1	N_2.png	2	N_3.png	3	N_4.png	4	Y_1.png	1	Y_2.png	2	Y_3.png	3	Y_4.png	4	confidence.png	1	guessing.png	2	respond_yes.png	3	respond_no.png	4	Word 47 of 80	1	Image 2 of 5	1	reveal.png	5
1	testBlock	absent_trial	99	56	no_4	im0000063.jpg	N_1.png	1	N_2.png	2	N_3.png	3	N_4.png	4	Y_1.png	1	Y_2.png	2	Y_3.png	3	Y_4.png	4	confidence.png	1	guessing.png	2	respond_yes.png	3	respond_no.png	4	Word 48 of 80	1	Image 2 of 5	1	outdoor	30
1	testBlock	centre_mouse	100	38	reveal	im0000063.jpg	N_1.png	1	N_2.png	2	N_3.png	3	N_4.png	4	Y_1.png	1	Y_2.png	2	Y_3.png	3	Y_4.png	4	confidence.png	1	guessing.png	2	respond_yes.png	3	respond_no.png	4	Word 48 of 80	1	Image 2 of 5	1	reveal.png	5
1	testBlock	absent_trial	101	39	yes_3	im0000063.jpg	N_1.png	1	N_2.png	2	N_3.png	3	N_4.png	4	Y_1.png	1	Y_2.png	2	Y_3.png	3	Y_4.png	4	confidence.png	1	guessing.png	2	respond_yes.png	3	respond_no.png	4	Word 49 of 80	1	Image 2 of 5	1	glass	10
1	testBlock	centre_mouse	102	41	reveal	im0000063.jpg	N_1.png	1	N_2.png	2	N_3.png	3	N_4.png	4	Y_1.png	1	Y_2.png	2	Y_3.png	3	Y_4.png	4	confidence.png	1	guessing.png	2	respond_yes.png	3	respond_no.png	4	Word 49 of 80	1	Image 2 of 5	1	reveal.png	5
1	testBlock	absent_trial	103	54	no_4	im0000063.jpg	N_1.png	1	N_2.png	2	N_3.png	3	N_4.png	4	Y_1.png	1	Y_2.png	2	Y_3.png	3	Y_4.png	4	confidence.png	1	guessing.png	2	respond_yes.png	3	respond_no.png	4	Word 50 of 80	1	Image 2 of 5	1	sand	9
1	testBlock	centre_mouse	104	52	reveal	im0000063.jpg	N_1.png	1	N_2.png	2	N_3.png	3	N_4.png	4	Y_1.png	1	Y_2.png	2	Y_3.png	3	Y_4.png	4	confidence.png	1	guessing.png	2	respond_yes.png	3	respond_no.png	4	Word 50 of 80	1	Image 2 of 5	1	reveal.png	5
1	testBlock	catch_trial	105	37	yes_1	im0000063.jpg	N_1.png	1	N_2.png	2	N_3.png	3	N_4.png	4	Y_1.png	1	Y_2.png	2	Y_3.png	3	Y_4.png	4	confidence.png	1	guessing.png	2	respond_yes.png	3	respond_no.png	4	Word 50 of 80	1	Image 2 of 5	1	PRESS: Yes 4	4
1	testBlock	centre_mouse	106	55	reveal	im0000063.jpg	N_1.png	1	N_2.png	2	N_3.png	3	N_4.png	4	Y_1.png	1	Y_2.png	2	Y_3.png	3	Y_4.png	4	confidence.png	1	guessing.png	2	respond_yes.png	3	respond_no.png	4	Word 50 of 80	1	Image 2 of 5	1	reveal.png	5
1	testBlock	absent_trial	107	32	yes_4	im0000063.jpg	N_1.png	1	N_2.png	2	N_3.png	3	N_4.png	4	Y_1.png	1	Y_2.png	2	Y_3.png	3	Y_4.png	4	confidence.png	1	guessing.png	2	respond_yes.png	3	respond_no.png	4	Word 51 of 80	1	Image 2 of 5	1	mountain	24
1	testBlock	centre_mouse	108	63	reveal	im0000063.jpg	N_1.png	1	N_2.png	2	N_3.png	3	N_4.png	4	Y_1.png	1	Y_2.png	2	Y_3.png	3	Y_4.png	4	confidence.png	1	guessing.png	2	respond_yes.png	3	respond_no.png	4	Word 51 of 80	1	Image 2 of 5	1	reveal.png	5
1	testBlock	absent_trial	109	43	yes_1	im0000063.jpg	N_1.png	1	N_2.png	2	N_3.png	3	N_4.png	4	Y_1.png	1	Y_2.png	2	Y_3.png	3	Y_4.png	4	confidence.png	1	guessing.png	2	respond_yes.png	3	respond_no.png	4	Word 52 of 80	1	Image 2 of 5	1	sweater	5
1	testBlock	centre_mouse	110	34	reveal	im0000063.jpg	N_1.png	1	N_2.png	2	N_3.png	3	N_4.png	4	Y_1.png	1	Y_2.png	2	Y_3.png	3	Y_4.png	4	confidence.png	1	guessing.png	2	respond_yes.png	3	respond_no.png	4	Word 52 of 80	1	Image 2 of 5	1	reveal.png	5
1	testBlock	present_trial	111	39	yes_2	im0000063.jpg	N_1.png	1	N_2.png	2	N_3.png	3	N_4.png	4	Y_1.png	1	Y_2.png	2	Y_3.png	3	Y_4.png	4	confidence.png	1	guessing.png	2	respond_yes.png	3	respond_no.png	4	Word 53 of 80	1	Image 2 of 5	1	hippo	2
1	testBlock	centre_mouse	112	43	reveal	im0000063.jpg	N_1.png	1	N_2.png	2	N_3.png	3	N_4.png	4	Y_1.png	1	Y_2.png	2	Y_3.png	3	Y_4.png	4	confidence.png	1	guessing.png	2	respond_yes.png	3	respond_no.png	4	Word 53 of 80	1	Image 2 of 5	1	reveal.png	5
1	testBlock	present_trial	113	51	yes_3	im0000063.jpg	N_1.png	1	N_2.png	2	N_3.png	3	N_4.png	4	Y_1.png	1	Y_2.png	2	Y_3.png	3	Y_4.png	4	confidence.png	1	guessing.png	2	respond_yes.png	3	respond_no.png	4	Word 54 of 80	1	Image 2 of 5	1	lie	35
1	testBlock	centre_mouse	114	51	reveal	im0000063.jpg	N_1.png	1	N_2.png	2	N_3.png	3	N_4.png	4	Y_1.png	1	Y_2.png	2	Y_3.png	3	Y_4.png	4	confidence.png	1	guessing.png	2	respond_yes.png	3	respond_no.png	4	Word 54 of 80	1	Image 2 of 5	1	reveal.png	5
1	testBlock	absent_trial	115	48	yes_4	im0000063.jpg	N_1.png	1	N_2.png	2	N_3.png	3	N_4.png	4	Y_1.png	1	Y_2.png	2	Y_3.png	3	Y_4.png	4	confidence.png	1	guessing.png	2	respond_yes.png	3	respond_no.png	4	Word 55 of 80	1	Image 2 of 5	1	car	39
1	testBlock	centre_mouse	116	40	reveal	im0000063.jpg	N_1.png	1	N_2.png	2	N_3.png	3	N_4.png	4	Y_1.png	1	Y_2.png	2	Y_3.png	3	Y_4.png	4	confidence.png	1	guessing.png	2	respond_yes.png	3	respond_no.png	4	Word 55 of 80	1	Image 2 of 5	1	reveal.png	5
1	testBlock	present_trial	117	46	yes_4	im0000063.jpg	N_1.png	1	N_2.png	2	N_3.png	3	N_4.png	4	Y_1.png	1	Y_2.png	2	Y_3.png	3	Y_4.png	4	confidence.png	1	guessing.png	2	respond_yes.png	3	respond_no.png	4	Word 56 of 80	1	Image 2 of 5	1	nature	14
1	testBlock	centre_mouse	118	46	reveal	im0000063.jpg	N_1.png	1	N_2.png	2	N_3.png	3	N_4.png	4	Y_1.png	1	Y_2.png	2	Y_3.png	3	Y_4.png	4	confidence.png	1	guessing.png	2	respond_yes.png	3	respond_no.png	4	Word 56 of 80	1	Image 2 of 5	1	reveal.png	5
1	testBlock	absent_trial	119	41	no_3	im0000063.jpg	N_1.png	1	N_2.png	2	N_3.png	3	N_4.png	4	Y_1.png	1	Y_2.png	2	Y_3.png	3	Y_4.png	4	confidence.png	1	guessing.png	2	respond_yes.png	3	respond_no.png	4	Word 57 of 80	1	Image 2 of 5	1	still	34
1	testBlock	centre_mouse	120	32	reveal	im0000063.jpg	N_1.png	1	N_2.png	2	N_3.png	3	N_4.png	4	Y_1.png	1	Y_2.png	2	Y_3.png	3	Y_4.png	4	confidence.png	1	guessing.png	2	respond_yes.png	3	respond_no.png	4	Word 57 of 80	1	Image 2 of 5	1	reveal.png	5
1	testBlock	present_trial	121	37	no_3	im0000063.jpg	N_1.png	1	N_2.png	2	N_3.png	3	N_4.png	4	Y_1.png	1	Y_2.png	2	Y_3.png	3	Y_4.png	4	confidence.png	1	guessing.png	2	respond_yes.png	3	respond_no.png	4	Word 58 of 80	1	Image 2 of 5	1	field	30
1	testBlock	centre_mouse	122	62	reveal	im0000063.jpg	N_1.png	1	N_2.png	2	N_3.png	3	N_4.png	4	Y_1.png	1	Y_2.png	2	Y_3.png	3	Y_4.png	4	confidence.png	1	guessing.png	2	respond_yes.png	3	respond_no.png	4	Word 58 of 80	1	Image 2 of 5	1	reveal.png	5
1	testBlock	present_trial	123	50	yes_4	im0000063.jpg	N_1.png	1	N_2.png	2	N_3.png	3	N_4.png	4	Y_1.png	1	Y_2.png	2	Y_3.png	3	Y_4.png	4	confidence.png	1	guessing.png	2	respond_yes.png	3	respond_no.png	4	Word 59 of 80	1	Image 2 of 5	1	friend	52
1	testBlock	centre_mouse	124	57	reveal	im0000063.jpg	N_1.png	1	N_2.png	2	N_3.png	3	N_4.png	4	Y_1.png	1	Y_2.png	2	Y_3.png	3	Y_4.png	4	confidence.png	1	guessing.png	2	respond_yes.png	3	respond_no.png	4	Word 59 of 80	1	Image 2 of 5	1	reveal.png	5
1	testBlock	absent_trial	125	54	no_4	im0000063.jpg	N_1.png	1	N_2.png	2	N_3.png	3	N_4.png	4	Y_1.png	1	Y_2.png	2	Y_3.png	3	Y_4.png	4	confidence.png	1	guessing.png	2	respond_yes.png	3	respond_no.png	4	Word 60 of 80	1	Image 2 of 5	1	ball	14
1	testBlock	centre_mouse	126	43	reveal	im0000063.jpg	N_1.png	1	N_2.png	2	N_3.png	3	N_4.png	4	Y_1.png	1	Y_2.png	2	Y_3.png	3	Y_4.png	4	confidence.png	1	guessing.png	2	respond_yes.png	3	respond_no.png	4	Word 60 of 80	1	Image 2 of 5	1	reveal.png	5
1	testBlock	present_trial	127	43	yes_2	im0000063.jpg	N_1.png	1	N_2.png	2	N_3.png	3	N_4.png	4	Y_1.png	1	Y_2.png	2	Y_3.png	3	Y_4.png	4	confidence.png	1	guessing.png	2	respond_yes.png	3	respond_no.png	4	Word 61 of 80	1	Image 2 of 5	1	two	4
1	testBlock	centre_mouse	128	58	reveal	im0000063.jpg	N_1.png	1	N_2.png	2	N_3.png	3	N_4.png	4	Y_1.png	1	Y_2.png	2	Y_3.png	3	Y_4.png	4	confidence.png	1	guessing.png	2	respond_yes.png	3	respond_no.png	4	Word 61 of 80	1	Image 2 of 5	1	reveal.png	5
1	testBlock	present_trial	129	62	yes_2	im0000063.jpg	N_1.png	1	N_2.png	2	N_3.png	3	N_4.png	4	Y_1.png	1	Y_2.png	2	Y_3.png	3	Y_4.png	4	confidence.png	1	guessing.png	2	respond_yes.png	3	respond_no.png	4	Word 62 of 80	1	Image 2 of 5	1	grey	16
1	testBlock	centre_mouse	130	49	reveal	im0000063.jpg	N_1.png	1	N_2.png	2	N_3.png	3	N_4.png	4	Y_1.png	1	Y_2.png	2	Y_3.png	3	Y_4.png	4	confidence.png	1	guessing.png	2	respond_yes.png	3	respond_no.png	4	Word 62 of 80	1	Image 2 of 5	1	reveal.png	5
1	testBlock	present_trial	131	45	yes_4	im0000063.jpg	N_1.png	1	N_2.png	2	N_3.png	3	N_4.png	4	Y_1.png	1	Y_2.png	2	Y_3.png	3	Y_4.png	4	confidence.png	1	guessing.png	2	respond_yes.png	3	respond_no.png	4	Word 63 of 80	1	Image 2 of 5	1	fat	34
1	testBlock	centre_mouse	132	44	reveal	im0000063.jpg	N_1.png	1	N_2.png	2	N_3.png	3	N_4.png	4	Y_1.png	1	Y_2.png	2	Y_3.png	3	Y_4.png	4	confidence.png	1	guessing.png	2	respond_yes.png	3	respond_no.png	4	Word 63 of 80	1	Image 2 of 5	1	reveal.png	5
1	testBlock	absent_trial	133	42	no_3	im0000063.jpg	N_1.png	1	N_2.png	2	N_3.png	3	N_4.png	4	Y_1.png	1	Y_2.png	2	Y_3.png	3	Y_4.png	4	confidence.png	1	guessing.png	2	respond_yes.png	3	respond_no.png	4	Word 64 of 80	1	Image 2 of 5	1	sit	40
1	testBlock	centre_mouse	134	52	reveal	im0000063.jpg	N_1.png	1	N_2.png	2	N_3.png	3	N_4.png	4	Y_1.png	1	Y_2.png	2	Y_3.png	3	Y_4.png	4	confidence.png	1	guessing.png	2	respond_yes.png	3	respond_no.png	4	Word 64 of 80	1	Image 2 of 5	1	reveal.png	5
1	testBlock	absent_trial	135	43	no_3	im0000063.jpg	N_1.png	1	N_2.png	2	N_3.png	3	N_4.png	4	Y_1.png	1	Y_2.png	2	Y_3.png	3	Y_4.png	4	confidence.png	1	guessing.png	2	respond_yes.png	3	respond_no.png	4	Word 65 of 80	1	Image 2 of 5	1	pussy	46
1	testBlock	centre_mouse	136	64	reveal	im0000063.jpg	N_1.png	1	N_2.png	2	N_3.png	3	N_4.png	4	Y_1.png	1	Y_2.png	2	Y_3.png	3	Y_4.png	4	confidence.png	1	guessing.png	2	respond_yes.png	3	respond_no.png	4	Word 65 of 80	1	Image 2 of 5	1	reveal.png	5
1	testBlock	absent_trial	137	45	yes_4	im0000063.jpg	N_1.png	1	N_2.png	2	N_3.png	3	N_4.png	4	Y_1.png	1	Y_2.png	2	Y_3.png	3	Y_4.png	4	confidence.png	1	guessing.png	2	respond_yes.png	3	respond_no.png	4	Word 66 of 80	1	Image 2 of 5	1	playing-music	11
1	testBlock	centre_mouse	138	49	reveal	im0000063.jpg	N_1.png	1	N_2.png	2	N_3.png	3	N_4.png	4	Y_1.png	1	Y_2.png	2	Y_3.png	3	Y_4.png	4	confidence.png	1	guessing.png	2	respond_yes.png	3	respond_no.png	4	Word 66 of 80	1	Image 2 of 5	1	reveal.png	5
1	testBlock	present_trial	139	60	yes_2	im0000063.jpg	N_1.png	1	N_2.png	2	N_3.png	3	N_4.png	4	Y_1.png	1	Y_2.png	2	Y_3.png	3	Y_4.png	4	confidence.png	1	guessing.png	2	respond_yes.png	3	respond_no.png	4	Word 67 of 80	1	Image 2 of 5	1	touch	17
1	testBlock	centre_mouse	140	41	reveal	im0000063.jpg	N_1.png	1	N_2.png	2	N_3.png	3	N_4.png	4	Y_1.png	1	Y_2.png	2	Y_3.png	3	Y_4.png	4	confidence.png	1	guessing.png	2	respond_yes.png	3	respond_no.png	4	Word 67 of 80	1	Image 2 of 5	1	reveal.png	5
1	testBlock	present_trial	141	43	yes_3	im0000063.jpg	N_1.png	1	N_2.png	2	N_3.png	3	N_4.png	4	Y_1.png	1	Y_2.png	2	Y_3.png	3	Y_4.png	4	confidence.png	1	guessing.png	2	respond_yes.png	3	respond_no.png	4	Word 68 of 80	1	Image 2 of 5	1	daylight	28
1	testBlock	centre_mouse	142	39	reveal	im0000063.jpg	N_1.png	1	N_2.png	2	N_3.png	3	N_4.png	4	Y_1.png	1	Y_2.png	2	Y_3.png	3	Y_4.png	4	confidence.png	1	guessing.png	2	respond_yes.png	3	respond_no.png	4	Word 68 of 80	1	Image 2 of 5	1	reveal.png	5
1	testBlock	present_trial	143	39	no_2	im0000063.jpg	N_1.png	1	N_2.png	2	N_3.png	3	N_4.png	4	Y_1.png	1	Y_2.png	2	Y_3.png	3	Y_4.png	4	confidence.png	1	guessing.png	2	respond_yes.png	3	respond_no.png	4	Word 69 of 80	1	Image 2 of 5	1	rest	24
1	testBlock	centre_mouse	144	60	reveal	im0000063.jpg	N_1.png	1	N_2.png	2	N_3.png	3	N_4.png	4	Y_1.png	1	Y_2.png	2	Y_3.png	3	Y_4.png	4	confidence.png	1	guessing.png	2	respond_yes.png	3	respond_no.png	4	Word 69 of 80	1	Image 2 of 5	1	reveal.png	5
1	testBlock	absent_trial	145	45	no_3	im0000063.jpg	N_1.png	1	N_2.png	2	N_3.png	3	N_4.png	4	Y_1.png	1	Y_2.png	2	Y_3.png	3	Y_4.png	4	confidence.png	1	guessing.png	2	respond_yes.png	3	respond_no.png	4	Word 70 of 80	1	Image 2 of 5	1	pump	7
1	testBlock	centre_mouse	146	37	reveal	im0000063.jpg	N_1.png	1	N_2.png	2	N_3.png	3	N_4.png	4	Y_1.png	1	Y_2.png	2	Y_3.png	3	Y_4.png	4	confidence.png	1	guessing.png	2	respond_yes.png	3	respond_no.png	4	Word 70 of 80	1	Image 2 of 5	1	reveal.png	5
1	testBlock	absent_trial	147	56	yes_4	im0000063.jpg	N_1.png	1	N_2.png	2	N_3.png	3	N_4.png	4	Y_1.png	1	Y_2.png	2	Y_3.png	3	Y_4.png	4	confidence.png	1	guessing.png	2	respond_yes.png	3	respond_no.png	4	Word 71 of 80	1	Image 2 of 5	1	sleep	21
1	testBlock	centre_mouse	148	27	reveal	im0000063.jpg	N_1.png	1	N_2.png	2	N_3.png	3	N_4.png	4	Y_1.png	1	Y_2.png	2	Y_3.png	3	Y_4.png	4	confidence.png	1	guessing.png	2	respond_yes.png	3	respond_no.png	4	Word 71 of 80	1	Image 2 of 5	1	reveal.png	5
1	testBlock	present_trial	149	47	yes_3	im0000063.jpg	N_1.png	1	N_2.png	2	N_3.png	3	N_4.png	4	Y_1.png	1	Y_2.png	2	Y_3.png	3	Y_4.png	4	confidence.png	1	guessing.png	2	respond_yes.png	3	respond_no.png	4	Word 72 of 80	1	Image 2 of 5	1	baby	3
1	testBlock	centre_mouse	150	49	reveal	im0000063.jpg	N_1.png	1	N_2.png	2	N_3.png	3	N_4.png	4	Y_1.png	1	Y_2.png	2	Y_3.png	3	Y_4.png	4	confidence.png	1	guessing.png	2	respond_yes.png	3	respond_no.png	4	Word 72 of 80	1	Image 2 of 5	1	reveal.png	5
1	testBlock	absent_trial	151	44	no_2	im0000063.jpg	N_1.png	1	N_2.png	2	N_3.png	3	N_4.png	4	Y_1.png	1	Y_2.png	2	Y_3.png	3	Y_4.png	4	confidence.png	1	guessing.png	2	respond_yes.png	3	respond_no.png	4	Word 73 of 80	1	Image 2 of 5	1	sky	37
1	testBlock	centre_mouse	152	32	reveal	im0000063.jpg	N_1.png	1	N_2.png	2	N_3.png	3	N_4.png	4	Y_1.png	1	Y_2.png	2	Y_3.png	3	Y_4.png	4	confidence.png	1	guessing.png	2	respond_yes.png	3	respond_no.png	4	Word 73 of 80	1	Image 2 of 5	1	reveal.png	5
1	testBlock	present_trial	153	36	yes_3	im0000063.jpg	N_1.png	1	N_2.png	2	N_3.png	3	N_4.png	4	Y_1.png	1	Y_2.png	2	Y_3.png	3	Y_4.png	4	confidence.png	1	guessing.png	2	respond_yes.png	3	respond_no.png	4	Word 74 of 80	1	Image 2 of 5	1	africa	5
1	testBlock	centre_mouse	154	46	reveal	im0000063.jpg	N_1.png	1	N_2.png	2	N_3.png	3	N_4.png	4	Y_1.png	1	Y_2.png	2	Y_3.png	3	Y_4.png	4	confidence.png	1	guessing.png	2	respond_yes.png	3	respond_no.png	4	Word 74 of 80	1	Image 2 of 5	1	reveal.png	5
